wavelength_nm,intensity
780.000000,0.017831
779.500000,0.018064
779.000000,0.018049
778.500000,0.017999
778.000000,0.018086
777.500000,0.018110
777.000000,0.018059
776.500000,0.017872
776.000000,0.017884
775.500000,0.018079
775.000000,0.018206
774.500000,0.018228
774.000000,0.018112
773.500000,0.018089
773.000000,0.018153
772.500000,0.018094
772.000000,0.017788
771.500000,0.017930
771.000000,0.018120
770.500000,0.017985
770.000000,0.018071
769.500000,0.018026
769.000000,0.018069
768.500000,0.018112
768.000000,0.018008
767.500000,0.018001
767.000000,0.018171
766.500000,0.018247
766.000000,0.018170
765.500000,0.018133
765.000000,0.017971
764.500000,0.018091
764.000000,0.018090
763.500000,0.018041
763.000000,0.018344
762.500000,0.018128
762.000000,0.017824
761.500000,0.017864
761.000000,0.017868
760.500000,0.017850
760.000000,0.017797
759.500000,0.017783
759.000000,0.017834
758.500000,0.017979
758.000000,0.018018
757.500000,0.017671
757.000000,0.017731
756.500000,0.017914
756.000000,0.017905
755.500000,0.017781
755.000000,0.017605
754.500000,0.017831
754.000000,0.018000
753.500000,0.018127
753.000000,0.018038
752.500000,0.017955
752.000000,0.017909
751.500000,0.017832
751.000000,0.017916
750.500000,0.017855
750.000000,0.017808
749.500000,0.017806
749.000000,0.017886
748.500000,0.017955
748.000000,0.018061
747.500000,0.018007
747.000000,0.017798
746.500000,0.017897
746.000000,0.018019
745.500000,0.017981
745.000000,0.018021
744.500000,0.018051
744.000000,0.017933
743.500000,0.017814
743.000000,0.017809
742.500000,0.017778
742.000000,0.017809
741.500000,0.017875
741.000000,0.017919
740.500000,0.018042
740.000000,0.017604
739.500000,0.017674
739.000000,0.017732
738.500000,0.017649
738.000000,0.017655
737.500000,0.017725
737.000000,0.017868
736.500000,0.017885
736.000000,0.017742
735.500000,0.017661
735.000000,0.017681
734.500000,0.017825
734.000000,0.017801
733.500000,0.017678
733.000000,0.017550
732.500000,0.017704
732.000000,0.017906
731.500000,0.017845
731.000000,0.017605
730.500000,0.017525
730.000000,0.017577
729.500000,0.017414
729.000000,0.017404
728.500000,0.017567
728.000000,0.017604
727.500000,0.017698
727.000000,0.017692
726.500000,0.017758
726.000000,0.017791
725.500000,0.017479
725.000000,0.017439
724.500000,0.017632
724.000000,0.017638
723.500000,0.017656
723.000000,0.017718
722.500000,0.017579
722.000000,0.017668
721.500000,0.017824
721.000000,0.017679
720.500000,0.017459
720.000000,0.017420
719.500000,0.017549
719.000000,0.017629
718.500000,0.017629
718.000000,0.017539
717.500000,0.017591
717.000000,0.017759
716.500000,0.017801
716.000000,0.017632
715.500000,0.017555
715.000000,0.017665
714.500000,0.017484
714.000000,0.017297
713.500000,0.017365
713.000000,0.017508
712.500000,0.017638
712.000000,0.017620
711.500000,0.017510
711.000000,0.017612
710.500000,0.017667
710.000000,0.017599
709.500000,0.017623
709.000000,0.017559
708.500000,0.017426
708.000000,0.017375
707.500000,0.017449
707.000000,0.017523
706.500000,0.017479
706.000000,0.017446
705.500000,0.017465
705.000000,0.017588
704.500000,0.017587
704.000000,0.017419
703.500000,0.017445
703.000000,0.017437
702.500000,0.017359
702.000000,0.017350
701.500000,0.017447
701.000000,0.017401
700.500000,0.017304
700.000000,0.017407
699.500000,0.017443
699.000000,0.017388
698.500000,0.017345
698.000000,0.017252
697.500000,0.017246
697.000000,0.017295
696.500000,0.017297
696.000000,0.017356
695.500000,0.017354
695.000000,0.017311
694.500000,0.017538
694.000000,0.017593
693.500000,0.017305
693.000000,0.017258
692.500000,0.017251
692.000000,0.017313
691.500000,0.017345
691.000000,0.017222
690.500000,0.017275
690.000000,0.017274
689.500000,0.017274
689.000000,0.017367
688.500000,0.017326
688.000000,0.017229
687.500000,0.017394
687.000000,0.017469
686.500000,0.017302
686.000000,0.017259
685.500000,0.017217
685.000000,0.017256
684.500000,0.017367
684.000000,0.017399
683.500000,0.017378
683.000000,0.017285
682.500000,0.017193
682.000000,0.017308
681.500000,0.017386
681.000000,0.017202
680.500000,0.017102
680.000000,0.017237
679.500000,0.017437
679.000000,0.017480
678.500000,0.017360
678.000000,0.017281
677.500000,0.017203
677.000000,0.017316
676.500000,0.017317
676.000000,0.017274
675.500000,0.017422
675.000000,0.017333
674.500000,0.017211
674.000000,0.017262
673.500000,0.017344
673.000000,0.017316
672.500000,0.017264
672.000000,0.017217
671.500000,0.017124
671.000000,0.017088
670.500000,0.017218
670.000000,0.017319
669.500000,0.017182
669.000000,0.017172
668.500000,0.017393
668.000000,0.017374
667.500000,0.017346
667.000000,0.017315
666.500000,0.017358
666.000000,0.017409
665.500000,0.017215
665.000000,0.017127
664.500000,0.017134
664.000000,0.017144
663.500000,0.017150
663.000000,0.017065
662.500000,0.017179
662.000000,0.017361
661.500000,0.017299
661.000000,0.017061
660.500000,0.017000
660.000000,0.017133
659.500000,0.017123
659.000000,0.017090
658.500000,0.017058
658.000000,0.017176
657.500000,0.017255
657.000000,0.017191
656.500000,0.017100
656.000000,0.017028
655.500000,0.017157
655.000000,0.017289
654.500000,0.017279
654.000000,0.017189
653.500000,0.017171
653.000000,0.017288
652.500000,0.017242
652.000000,0.017238
651.500000,0.017252
651.000000,0.017107
650.500000,0.017059
650.000000,0.017136
649.500000,0.017245
649.000000,0.017243
648.500000,0.017220
648.000000,0.017220
647.500000,0.017337
647.000000,0.017406
646.500000,0.017188
646.000000,0.017044
645.500000,0.017051
645.000000,0.017157
644.500000,0.017290
644.000000,0.017236
643.500000,0.017262
643.000000,0.017160
642.500000,0.016973
642.000000,0.017045
641.500000,0.017130
641.000000,0.017122
640.500000,0.017140
640.000000,0.017137
639.500000,0.017133
639.000000,0.017221
638.500000,0.017211
638.000000,0.017192
637.500000,0.017092
637.000000,0.016991
636.500000,0.017123
636.000000,0.017243
635.500000,0.017222
635.000000,0.017227
634.500000,0.017168
634.000000,0.017097
633.500000,0.017246
633.000000,0.017378
632.500000,0.017314
632.000000,0.017228
631.500000,0.017195
631.000000,0.017187
630.500000,0.017187
630.000000,0.017168
629.500000,0.017231
629.000000,0.017328
628.500000,0.017347
628.000000,0.017391
627.500000,0.017287
627.000000,0.017238
626.500000,0.017309
626.000000,0.017251
625.500000,0.017214
625.000000,0.017274
624.500000,0.017262
624.000000,0.017188
623.500000,0.017289
623.000000,0.017453
622.500000,0.017499
622.000000,0.017422
621.500000,0.017323
621.000000,0.017222
620.500000,0.017292
620.000000,0.017263
619.500000,0.017250
619.000000,0.017248
618.500000,0.017328
618.000000,0.017297
617.500000,0.017223
617.000000,0.017228
616.500000,0.017229
616.000000,0.017291
615.500000,0.017287
615.000000,0.017254
614.500000,0.017396
614.000000,0.017305
613.500000,0.017248
613.000000,0.017411
612.500000,0.017418
612.000000,0.017384
611.500000,0.017282
611.000000,0.017328
610.500000,0.017437
610.000000,0.017368
609.500000,0.017339
609.000000,0.017340
608.500000,0.017356
608.000000,0.017438
607.500000,0.017437
607.000000,0.017374
606.500000,0.017482
606.000000,0.017557
605.500000,0.017620
605.000000,0.017732
604.500000,0.017688
604.000000,0.017470
603.500000,0.017445
603.000000,0.017499
602.500000,0.017525
602.000000,0.017602
601.500000,0.017565
601.000000,0.017510
600.500000,0.017595
600.000000,0.017732
599.500000,0.017650
599.000000,0.017556
598.500000,0.017593
598.000000,0.017662
597.500000,0.017702
597.000000,0.017641
596.500000,0.017632
596.000000,0.017668
595.500000,0.017811
595.000000,0.017959
594.500000,0.017824
594.000000,0.017719
593.500000,0.017883
593.000000,0.017933
592.500000,0.017888
592.000000,0.017914
591.500000,0.017898
591.000000,0.017812
590.500000,0.017848
590.000000,0.017883
589.500000,0.017833
589.000000,0.017929
588.500000,0.017884
588.000000,0.017867
587.500000,0.017893
587.000000,0.017857
586.500000,0.017954
586.000000,0.017925
585.500000,0.017891
585.000000,0.017970
584.500000,0.018045
584.000000,0.018134
583.500000,0.018074
583.000000,0.017905
582.500000,0.017858
582.000000,0.017949
581.500000,0.017995
581.000000,0.018020
580.500000,0.017938
580.000000,0.017938
579.500000,0.018002
579.000000,0.017947
578.500000,0.018008
578.000000,0.018098
577.500000,0.018180
577.000000,0.018144
576.500000,0.018084
576.000000,0.018172
575.500000,0.018169
575.000000,0.018172
574.500000,0.018301
574.000000,0.018366
573.500000,0.018386
573.000000,0.018401
572.500000,0.018353
572.000000,0.018269
571.500000,0.018361
571.000000,0.018560
570.500000,0.018722
570.000000,0.018745
569.500000,0.018748
569.000000,0.018803
568.500000,0.018884
568.000000,0.018988
567.500000,0.019090
567.000000,0.019138
566.500000,0.019077
566.000000,0.019115
565.500000,0.019273
565.000000,0.019347
564.500000,0.019507
564.000000,0.019682
563.500000,0.019739
563.000000,0.019884
562.500000,0.020013
562.000000,0.020113
561.500000,0.020137
561.000000,0.020328
560.500000,0.020627
560.000000,0.020851
559.500000,0.021055
559.000000,0.021225
558.500000,0.021464
558.000000,0.021673
557.500000,0.021832
557.000000,0.022075
556.500000,0.022361
556.000000,0.022534
555.500000,0.022831
555.000000,0.023130
554.500000,0.023359
554.000000,0.023535
553.500000,0.023694
553.000000,0.024028
552.500000,0.024234
552.000000,0.024507
551.500000,0.024844
551.000000,0.025104
550.500000,0.025465
550.000000,0.025758
549.500000,0.026074
549.000000,0.026361
548.500000,0.026471
548.000000,0.026641
547.500000,0.026999
547.000000,0.027333
546.500000,0.027511
546.000000,0.027762
545.500000,0.028135
545.000000,0.028484
544.500000,0.028763
544.000000,0.028929
543.500000,0.029228
543.000000,0.029437
542.500000,0.029615
542.000000,0.029917
541.500000,0.030274
541.000000,0.030631
540.500000,0.030715
540.000000,0.030855
539.500000,0.031249
539.000000,0.031550
538.500000,0.031819
538.000000,0.032100
537.500000,0.032260
537.000000,0.032620
536.500000,0.033048
536.000000,0.033297
535.500000,0.033624
535.000000,0.033980
534.500000,0.034216
534.000000,0.034534
533.500000,0.035035
533.000000,0.035599
532.500000,0.036008
532.000000,0.036411
531.500000,0.036935
531.000000,0.037472
530.500000,0.038066
530.000000,0.038757
529.500000,0.039381
529.000000,0.040076
528.500000,0.040914
528.000000,0.041924
527.500000,0.042877
527.000000,0.043779
526.500000,0.045055
526.000000,0.046335
525.500000,0.047731
525.000000,0.049226
524.500000,0.050869
524.000000,0.052812
523.500000,0.054817
523.000000,0.056868
522.500000,0.059175
522.000000,0.061922
521.500000,0.064907
521.000000,0.068142
520.500000,0.071649
520.000000,0.075407
519.500000,0.079573
519.000000,0.084262
518.500000,0.089355
518.000000,0.094830
517.500000,0.100975
517.000000,0.107540
516.500000,0.114761
516.000000,0.122869
515.500000,0.131483
515.000000,0.140826
514.500000,0.151112
514.000000,0.162332
513.500000,0.174439
513.000000,0.187470
512.500000,0.201772
512.000000,0.217294
511.500000,0.234095
511.000000,0.252278
510.500000,0.271951
510.000000,0.292884
509.500000,0.315377
509.000000,0.339806
508.500000,0.366123
508.000000,0.394056
507.500000,0.423881
507.000000,0.455667
506.500000,0.489793
506.000000,0.525830
505.500000,0.563914
505.000000,0.604276
504.500000,0.646854
504.000000,0.691604
503.500000,0.738510
503.000000,0.787672
502.500000,0.839188
502.000000,0.892919
501.500000,0.948526
501.000000,1.006350
500.500000,1.066170
500.000000,1.127910
499.500000,1.191560
499.000000,1.256720
498.500000,1.323030
498.000000,1.390570
497.500000,1.459560
497.000000,1.529380
496.500000,1.599860
496.000000,1.670960
495.500000,1.742150
495.000000,1.813860
494.500000,1.885340
494.000000,1.956070
493.500000,2.026350
493.000000,2.094950
492.500000,2.162190
492.000000,2.229020
491.500000,2.293600
491.000000,2.355450
490.500000,2.414970
490.000000,2.472260
489.500000,2.527700
489.000000,2.580320
488.500000,2.628950
488.000000,2.674030
487.500000,2.716560
487.000000,2.756600
486.500000,2.795040
486.000000,2.829600
485.500000,2.859350
485.000000,2.886770
484.500000,2.910650
484.000000,2.934490
483.500000,2.957930
483.000000,2.976880
482.500000,2.991520
482.000000,3.004400
481.500000,3.015590
481.000000,3.028580
480.500000,3.038580
480.000000,3.043450
479.500000,3.047050
479.000000,3.051050
478.500000,3.057140
478.000000,3.060980
477.500000,3.061170
477.000000,3.058260
476.500000,3.054120
476.000000,3.050820
475.500000,3.051660
475.000000,3.049490
474.500000,3.042210
474.000000,3.036430
473.500000,3.031160
473.000000,3.027580
472.500000,3.024420
472.000000,3.017580
471.500000,3.008870
471.000000,3.002620
470.500000,2.998870
470.000000,2.995150
469.500000,2.988430
469.000000,2.980320
468.500000,2.974030
468.000000,2.969550
467.500000,2.968920
467.000000,2.965970
466.500000,2.960600
466.000000,2.957530
465.500000,2.955510
465.000000,2.955550
464.500000,2.955930
464.000000,2.954300
463.500000,2.950720
463.000000,2.949980
462.500000,2.951290
462.000000,2.954560
461.500000,2.956060
461.000000,2.954300
460.500000,2.954880
460.000000,2.956250
459.500000,2.958680
459.000000,2.960390
458.500000,2.959540
458.000000,2.959410
457.500000,2.959340
457.000000,2.962170
456.500000,2.968060
456.000000,2.969400
455.500000,2.969480
455.000000,2.971530
454.500000,2.975790
454.000000,2.984030
453.500000,2.989960
453.000000,2.994100
452.500000,3.001780
452.000000,3.013770
451.500000,3.027100
451.000000,3.042300
450.500000,3.059970
450.000000,3.090550
449.500000,3.114820
449.000000,3.140340
448.500000,3.167950
448.000000,3.202530
447.500000,3.243930
447.000000,3.283380
446.500000,3.320100
446.000000,3.356140
445.500000,3.395580
445.000000,3.439580
444.500000,3.478050
444.000000,3.509020
443.500000,3.528660
443.000000,3.540900
442.500000,3.560740
442.000000,3.574690
441.500000,3.577400
441.000000,3.575360
440.500000,3.574350
440.000000,3.578500
439.500000,3.586780
439.000000,3.593510
438.500000,3.586450
438.000000,3.573020
437.500000,3.566350
437.000000,3.568670
436.500000,3.568450
436.000000,3.558000
435.500000,3.543500
435.000000,3.524960
434.500000,3.519260
434.000000,3.515980
433.500000,3.498160
433.000000,3.476020
432.500000,3.449800
432.000000,3.423730
431.500000,3.396430
431.000000,3.358320
430.500000,3.307720
430.000000,3.248640
429.500000,3.190030
429.000000,3.133650
428.500000,3.075460
428.000000,3.015550
427.500000,2.954440
427.000000,2.898120
426.500000,2.845100
426.000000,2.795690
425.500000,2.751610
425.000000,2.708690
424.500000,2.670920
424.000000,2.640330
423.500000,2.615040
423.000000,2.598100
422.500000,2.589480
422.000000,2.587450
421.500000,2.595890
421.000000,2.616030
420.500000,2.643760
420.000000,2.678840
419.500000,2.721820
419.000000,2.769630
418.500000,2.820510
418.000000,2.874410
417.500000,2.928090
417.000000,2.972010
416.500000,3.011510
416.000000,3.046680
415.500000,3.071280
415.000000,3.089110
414.500000,3.097080
414.000000,3.100890
413.500000,3.096010
413.000000,3.089370
412.500000,3.081400
412.000000,3.059660
411.500000,3.028340
411.000000,2.996110
410.500000,2.957890
410.000000,2.888030
409.500000,2.835340
409.000000,2.776490
408.500000,2.711660
408.000000,2.642170
407.500000,2.570250
407.000000,2.498750
406.500000,2.425140
406.000000,2.350750
405.500000,2.278080
405.000000,2.206540
404.500000,2.133010
404.000000,2.060730
403.500000,1.991320
403.000000,1.923710
402.500000,1.858590
402.000000,1.797170
401.500000,1.740880
401.000000,1.689920
400.500000,1.644900
400.000000,1.605300
399.500000,1.571760
399.000000,1.544600
398.500000,1.523310
398.000000,1.507950
397.500000,1.498130
397.000000,1.492700
396.500000,1.491520
396.000000,1.494190
395.500000,1.499030
395.000000,1.505270
394.500000,1.511350
394.000000,1.517120
393.500000,1.522240
393.000000,1.525100
392.500000,1.526650
392.000000,1.526260
391.500000,1.522540
391.000000,1.515570
390.500000,1.505590
390.000000,1.491640
389.500000,1.472870
389.000000,1.450190
388.500000,1.424500
388.000000,1.395680
387.500000,1.363970
387.000000,1.329620
386.500000,1.293080
386.000000,1.255260
385.500000,1.216480
385.000000,1.177100
384.500000,1.137110
384.000000,1.096920
383.500000,1.057030
383.000000,1.018060
382.500000,0.980480
382.000000,0.944353
381.500000,0.909967
381.000000,0.877725
380.500000,0.847398
380.000000,0.818986
379.500000,0.792577
379.000000,0.768125
378.500000,0.745486
378.000000,0.725103
377.500000,0.707217
377.000000,0.691430
376.500000,0.677707
376.000000,0.665847
375.500000,0.655896
375.000000,0.647518
374.500000,0.640520
374.000000,0.634419
373.500000,0.628633
373.000000,0.623193
372.500000,0.618080
372.000000,0.612754
371.500000,0.606640
371.000000,0.599708
370.500000,0.592089
370.000000,0.581845
369.500000,0.572361
369.000000,0.562082
368.500000,0.551055
368.000000,0.539610
367.500000,0.527295
367.000000,0.514477
366.500000,0.501100
366.000000,0.487675
365.500000,0.474175
365.000000,0.459982
364.500000,0.446006
364.000000,0.432301
363.500000,0.418751
363.000000,0.405555
362.500000,0.392905
362.000000,0.380976
361.500000,0.369942
361.000000,0.359495
360.500000,0.349511
360.000000,0.340422
359.500000,0.332193
359.000000,0.324821
358.500000,0.317965
358.000000,0.311169
357.500000,0.305054
357.000000,0.299563
356.500000,0.293984
356.000000,0.289016
355.500000,0.284654
355.000000,0.280528
354.500000,0.276641
354.000000,0.273195
353.500000,0.269748
353.000000,0.266319
352.500000,0.263235
352.000000,0.260429
351.500000,0.258033
351.000000,0.255621
350.500000,0.253026
350.000000,0.250626
349.500000,0.248345
349.000000,0.246611
348.500000,0.245233
348.000000,0.244136
347.500000,0.243500
347.000000,0.243317
346.500000,0.243485
346.000000,0.244070
345.500000,0.244999
345.000000,0.246235
344.500000,0.248145
344.000000,0.250358
343.500000,0.253167
343.000000,0.256248
342.500000,0.259543
342.000000,0.263249
341.500000,0.267340
341.000000,0.271613
340.500000,0.275362
340.000000,0.278899
339.500000,0.282339
339.000000,0.285787
338.500000,0.289048
338.000000,0.292077
337.500000,0.295302
337.000000,0.298896
336.500000,0.302900
336.000000,0.307282
335.500000,0.311971
335.000000,0.316962
334.500000,0.322663
334.000000,0.328510
333.500000,0.334516
333.000000,0.340921
332.500000,0.346994
332.000000,0.353246
331.500000,0.359647
331.000000,0.366230
330.500000,0.372800
330.000000,0.379223
329.500000,0.386095
329.000000,0.392725
328.500000,0.399242
328.000000,0.405847
327.500000,0.412264
327.000000,0.418805
326.500000,0.425305
326.000000,0.431652
325.500000,0.437985
325.000000,0.444322
324.500000,0.450543
324.000000,0.456788
323.500000,0.463352
323.000000,0.470138
322.500000,0.477348
322.000000,0.484844
321.500000,0.492687
321.000000,0.501153
320.500000,0.509980
320.000000,0.519498
319.500000,0.529459
319.000000,0.539736
318.500000,0.550774
318.000000,0.562172
317.500000,0.573825
317.000000,0.585565
316.500000,0.597420
316.000000,0.609412
315.500000,0.621310
315.000000,0.633379
314.500000,0.645238
314.000000,0.656805
313.500000,0.668265
313.000000,0.679115
312.500000,0.689561
312.000000,0.699798
311.500000,0.709362
311.000000,0.718315
310.500000,0.727343
310.000000,0.735650
309.500000,0.743380
309.000000,0.751038
308.500000,0.757800
308.000000,0.763670
307.500000,0.769192
307.000000,0.774581
306.500000,0.778943
306.000000,0.782909
305.500000,0.786346
305.000000,0.788942
304.500000,0.791650
304.000000,0.794012
303.500000,0.795672
303.000000,0.797416
302.500000,0.799420
302.000000,0.800621
301.500000,0.802154
301.000000,0.803814
300.500000,0.805071
300.000000,0.806618
