wavelength_nm,n,k
400.920000,1.725000,0.000001
402.510000,1.723400,0.000000
404.090000,1.721800,0.000000
405.680000,1.720300,0.000000
407.260000,1.718800,0.000000
408.850000,1.717300,0.000000
410.440000,1.715900,0.000000
412.020000,1.714600,0.000000
413.610000,1.713300,0.000000
415.200000,1.712000,0.000000
416.780000,1.710800,0.000000
418.370000,1.709500,0.000000
419.950000,1.708400,0.000000
421.540000,1.707200,0.000000
423.130000,1.706100,0.000000
424.710000,1.705000,0.000000
426.300000,1.703900,0.000000
427.890000,1.702800,0.000000
429.470000,1.701800,0.000000
431.060000,1.700800,0.000000
432.640000,1.699800,0.000000
434.230000,1.698900,0.000000
435.820000,1.697900,0.000000
437.400000,1.697000,0.000000
438.990000,1.696100,0.000000
440.570000,1.695200,0.000000
442.160000,1.694400,0.000000
443.750000,1.693500,0.000000
445.330000,1.692700,0.000000
446.920000,1.691800,0.000000
448.500000,1.691000,0.000000
450.090000,1.690300,0.000000
451.670000,1.689500,0.000000
453.260000,1.688700,0.000000
454.850000,1.688000,0.000000
456.430000,1.687200,0.000000
458.020000,1.686500,0.000000
459.600000,1.685800,0.000000
461.190000,1.685100,0.000000
462.770000,1.684400,0.000000
464.360000,1.683800,0.000000
465.950000,1.683100,0.000000
467.530000,1.682400,0.000000
469.120000,1.681800,0.000000
470.700000,1.681200,0.000000
472.290000,1.680600,0.000000
473.870000,1.679900,0.000000
475.460000,1.679300,0.000000
477.040000,1.678700,0.000000
478.630000,1.678200,0.000000
480.210000,1.677600,0.000000
481.800000,1.677000,0.000000
483.390000,1.676500,0.000000
484.970000,1.675900,0.000000
486.560000,1.675400,0.000000
488.140000,1.674800,0.000000
489.730000,1.674300,0.000000
491.310000,1.673800,0.000000
492.900000,1.673300,0.000000
494.480000,1.672800,0.000000
496.070000,1.672300,0.000000
497.650000,1.671800,0.000000
499.240000,1.671300,0.000000
500.820000,1.670800,0.000000
502.410000,1.670400,0.000000
503.990000,1.669900,0.000000
505.580000,1.669400,0.000000
507.160000,1.669000,0.000000
508.750000,1.668500,0.000000
510.330000,1.668100,0.000000
511.910000,1.667700,0.000000
513.500000,1.667200,0.000000
515.080000,1.666800,0.000000
516.670000,1.666400,0.000000
518.250000,1.666000,0.000000
519.840000,1.665600,0.000000
521.420000,1.665200,0.000000
523.010000,1.664800,0.000000
524.590000,1.664400,0.000000
526.180000,1.664000,0.000000
527.760000,1.663600,0.000000
529.340000,1.663200,0.000000
530.930000,1.662800,0.000000
532.510000,1.662500,0.000000
534.100000,1.662100,0.000000
535.680000,1.661700,0.000000
537.260000,1.661400,0.000000
538.850000,1.661000,0.000000
540.430000,1.660700,0.000000
542.020000,1.660300,0.000000
543.600000,1.660000,0.000000
545.180000,1.659700,0.000000
546.770000,1.659300,0.000000
548.350000,1.659000,0.000000
549.940000,1.658700,0.000000
551.520000,1.658300,0.000000
553.100000,1.658000,0.000000
554.690000,1.657700,0.000000
556.270000,1.657400,0.000000
557.850000,1.657100,0.000000
559.440000,1.656800,0.000000
561.020000,1.656500,0.000000
562.600000,1.656200,0.000000
564.190000,1.655900,0.000000
565.770000,1.655600,0.000000
567.350000,1.655300,0.000000
568.940000,1.655000,0.000000
570.520000,1.654700,0.000000
572.100000,1.654400,0.000000
573.690000,1.654200,0.000000
575.270000,1.653900,0.000000
576.850000,1.653600,0.000000
578.430000,1.653400,0.000000
580.020000,1.653100,0.000000
581.600000,1.652800,0.000000
583.180000,1.652600,0.000000
584.770000,1.652300,0.000000
586.350000,1.652000,0.000000
587.930000,1.651800,0.000000
589.510000,1.651500,0.000000
591.090000,1.651300,0.000000
592.680000,1.651000,0.000000
594.260000,1.650800,0.000000
595.840000,1.650600,0.000000
597.420000,1.650300,0.000000
599.010000,1.650100,0.000000
600.590000,1.649800,0.000000
602.170000,1.649600,0.000000
603.750000,1.649400,0.000000
605.330000,1.649200,0.000000
606.920000,1.648900,0.000000
608.500000,1.648700,0.000000
610.080000,1.648500,0.000000
611.660000,1.648300,0.000000
613.240000,1.648100,0.000000
614.820000,1.647800,0.000000
616.410000,1.647600,0.000000
617.990000,1.647400,0.000000
619.570000,1.647200,0.000000
621.150000,1.647000,0.000000
622.730000,1.646800,0.000000
624.310000,1.646600,0.000000
625.890000,1.646400,0.000000
627.470000,1.646200,0.000000
629.060000,1.646000,0.000000
630.640000,1.645800,0.000000
632.220000,1.645600,0.000000
633.800000,1.645400,0.000000
635.380000,1.645200,0.000000
636.960000,1.645000,0.000000
638.540000,1.644800,0.000000
640.120000,1.644600,0.000000
641.700000,1.644500,0.000000
643.280000,1.644300,0.000000
644.860000,1.644100,0.000000
646.440000,1.643900,0.000000
648.020000,1.643700,0.000000
649.600000,1.643600,0.000000
651.180000,1.643400,0.000000
652.760000,1.643200,0.000000
654.340000,1.643000,0.000000
655.920000,1.642900,0.000000
657.500000,1.642700,0.000000
659.080000,1.642500,0.000000
660.660000,1.642400,0.000000
662.240000,1.642200,0.000000
663.820000,1.642000,0.000000
665.400000,1.641900,0.000000
666.980000,1.641700,0.000000
668.560000,1.641500,0.000000
670.140000,1.641400,0.000000
671.720000,1.641200,0.000000
673.300000,1.641100,0.000000
674.880000,1.640900,0.000000
676.450000,1.640800,0.000000
678.030000,1.640600,0.000000
679.610000,1.640500,0.000000
681.190000,1.640300,0.000000
682.770000,1.640200,0.000000
684.350000,1.640000,0.000000
685.930000,1.639900,0.000000
687.510000,1.639700,0.000000
689.080000,1.639600,0.000000
690.660000,1.639400,0.000000
692.240000,1.639300,0.000000
693.820000,1.639100,0.000000
695.400000,1.639000,0.000000
696.970000,1.638900,0.000000
698.550000,1.638700,0.000000
700.130000,1.638600,0.000000
701.710000,1.638500,0.000000
703.290000,1.638300,0.000000
704.860000,1.638200,0.000000
706.440000,1.638100,0.000000
708.020000,1.637900,0.000000
709.600000,1.637800,0.000000
711.170000,1.637700,0.000000
712.750000,1.637500,0.000000
714.330000,1.637400,0.000000
715.900000,1.637300,0.000000
717.480000,1.637200,0.000000
719.060000,1.637000,0.000000
720.630000,1.636900,0.000000
722.210000,1.636800,0.000000
723.790000,1.636700,0.000000
725.360000,1.636500,0.000000
726.940000,1.636400,0.000000
728.520000,1.636300,0.000000
730.090000,1.636200,0.000000
731.670000,1.636100,0.000000
733.250000,1.635900,0.000000
734.820000,1.635800,0.000000
736.400000,1.635700,0.000000
737.970000,1.635600,0.000000
739.550000,1.635500,0.000000
741.120000,1.635400,0.000000
742.700000,1.635300,0.000000
744.280000,1.635100,0.000000
745.850000,1.635000,0.000000
747.430000,1.634900,0.000000
749.000000,1.634800,0.000000
750.580000,1.634700,0.000000
752.150000,1.634600,0.000000
753.730000,1.634500,0.000000
755.300000,1.634400,0.000000
756.880000,1.634300,0.000000
758.450000,1.634200,0.000000
760.030000,1.634100,0.000000
761.600000,1.634000,0.000000
763.170000,1.633900,0.000000
764.750000,1.633800,0.000000
766.320000,1.633700,0.000000
767.900000,1.633600,0.000000
769.470000,1.633500,0.000000
771.040000,1.633400,0.000000
772.620000,1.633300,0.000000
774.190000,1.633200,0.000000
775.770000,1.633100,0.000000
777.340000,1.633000,0.000000
778.910000,1.632900,0.000000
780.490000,1.632800,0.000000
782.060000,1.632700,0.000000
783.630000,1.632600,0.000000
785.210000,1.632500,0.000000
786.780000,1.632400,0.000000
788.350000,1.632300,0.000000
789.920000,1.632200,0.000000
791.500000,1.632200,0.000000
793.070000,1.632100,0.000000
794.640000,1.632000,0.000000
796.210000,1.631900,0.000000
797.790000,1.631800,0.000000
799.360000,1.631700,0.000000
800.930000,1.631600,0.000000
802.500000,1.631500,0.000000
804.070000,1.631400,0.000000
805.650000,1.631400,0.000000
807.220000,1.631300,0.000000
808.790000,1.631200,0.000000
810.360000,1.631100,0.000000
811.930000,1.631000,0.000000
813.500000,1.630900,0.000000
815.070000,1.630900,0.000000
816.640000,1.630800,0.000000
818.220000,1.630700,0.000000
819.790000,1.630600,0.000000
821.360000,1.630500,0.000000
822.930000,1.630500,0.000000
824.500000,1.630400,0.000000
826.070000,1.630300,0.000000
827.640000,1.630200,0.000000
829.210000,1.630100,0.000000
830.780000,1.630100,0.000000
832.350000,1.630000,0.000000
833.920000,1.629900,0.000000
835.490000,1.629800,0.000000
837.060000,1.629800,0.000000
838.630000,1.629700,0.000000
840.200000,1.629600,0.000000
841.770000,1.629500,0.000000
843.330000,1.629500,0.000000
844.900000,1.629400,0.000000
846.470000,1.629300,0.000000
848.040000,1.629300,0.000000
849.610000,1.629200,0.000000
851.180000,1.629100,0.000000
852.750000,1.629000,0.000000
854.320000,1.629000,0.000000
855.880000,1.628900,0.000000
857.450000,1.628800,0.000000
859.020000,1.628800,0.000000
860.590000,1.628700,0.000000
862.160000,1.628600,0.000000
863.720000,1.628600,0.000000
865.290000,1.628500,0.000000
866.860000,1.628400,0.000000
868.430000,1.628400,0.000000
869.990000,1.628300,0.000000
871.560000,1.628200,0.000000
873.130000,1.628200,0.000000
874.690000,1.628100,0.000000
876.260000,1.628000,0.000000
877.830000,1.628000,0.000000
879.390000,1.627900,0.000000
880.960000,1.627800,0.000000
882.530000,1.627800,0.000000
884.090000,1.627700,0.000000
885.660000,1.627600,0.000000
887.220000,1.627600,0.000000
888.790000,1.627500,0.000000
890.360000,1.627500,0.000000
891.920000,1.627400,0.000000
893.490000,1.627300,0.000000
895.050000,1.627300,0.000000
896.620000,1.627200,0.000000
898.180000,1.627200,0.000000
899.750000,1.627100,0.000000
901.310000,1.627000,0.000000
902.880000,1.627000,0.000000
904.440000,1.626900,0.000000
906.010000,1.626900,0.000000
907.570000,1.626800,0.000000
909.130000,1.626700,0.000000
910.700000,1.626700,0.000000
912.260000,1.626600,0.000000
913.830000,1.626600,0.000000
915.390000,1.626500,0.000000
916.950000,1.626500,0.000000
918.520000,1.626400,0.000000
920.080000,1.626400,0.000000
921.640000,1.626300,0.000000
923.210000,1.626200,0.000000
924.770000,1.626200,0.000000
926.330000,1.626100,0.000000
927.890000,1.626100,0.000000
929.460000,1.626000,0.000000
931.020000,1.626000,0.000000
932.580000,1.625900,0.000000
934.140000,1.625900,0.000000
935.710000,1.625800,0.000000
937.270000,1.625800,0.000000
938.830000,1.625700,0.000000
940.390000,1.625700,0.000000
941.950000,1.625600,0.000000
943.510000,1.625600,0.000000
945.070000,1.625500,0.000000
946.640000,1.625500,0.000000
948.200000,1.625400,0.000000
949.760000,1.625400,0.000000
951.320000,1.625300,0.000000
952.880000,1.625300,0.000000
954.440000,1.625200,0.000000
956.000000,1.625200,0.000000
957.560000,1.625100,0.000000
959.120000,1.625100,0.000000
960.680000,1.625000,0.000000
962.240000,1.625000,0.000000
963.800000,1.624900,0.000000
965.360000,1.624900,0.000000
966.920000,1.624800,0.000000
968.480000,1.624800,0.000000
970.030000,1.624700,0.000000
971.590000,1.624700,0.000000
973.150000,1.624600,0.000000
974.710000,1.624600,0.000000
976.270000,1.624600,0.000000
977.830000,1.624500,0.000000
979.390000,1.624500,0.000000
980.940000,1.624400,0.000000
982.500000,1.624400,0.000000
984.060000,1.624300,0.000000
985.620000,1.624300,0.000000
987.170000,1.624200,0.000000
988.730000,1.624200,0.000000
990.290000,1.624200,0.000000
991.850000,1.624100,0.000000
993.400000,1.624100,0.000000
994.960000,1.624000,0.000000
996.520000,1.624000,0.000000
998.070000,1.623900,0.000000
999.630000,1.623900,0.000000
1010.500000,1.623600,0.000000
1013.900000,1.623500,0.000000
1017.300000,1.623400,0.000000
1020.700000,1.623300,0.000000
1024.000000,1.623300,0.000000
1027.400000,1.623200,0.000000
1030.800000,1.623100,0.000000
1034.200000,1.623000,0.000000
1037.600000,1.622900,0.000000
1040.900000,1.622800,0.000000
1044.300000,1.622800,0.000000
1047.700000,1.622700,0.000000
1051.100000,1.622600,0.000000
1054.500000,1.622500,0.000000
1057.900000,1.622500,0.000000
1061.300000,1.622400,0.000000
1064.600000,1.622300,0.000000
1068.000000,1.622200,0.000000
1071.400000,1.622200,0.000000
1074.800000,1.622100,0.000000
1078.200000,1.622000,0.000000
1081.600000,1.621900,0.000000
1085.000000,1.621900,0.000000
1088.400000,1.621800,0.000000
1091.800000,1.621700,0.000000
1095.100000,1.621700,0.000000
1098.500000,1.621600,0.000000
1101.900000,1.621500,0.000000
1105.300000,1.621400,0.000000
1108.700000,1.621400,0.000000
1112.100000,1.621300,0.000000
1115.500000,1.621200,0.000000
1118.900000,1.621200,0.000000
1122.300000,1.621100,0.000000
1125.700000,1.621100,0.000000
1129.100000,1.621000,0.000000
1132.500000,1.620900,0.000000
1135.900000,1.620900,0.000000
1139.300000,1.620800,0.000000
1142.700000,1.620700,0.000000
1146.100000,1.620700,0.000000
1149.500000,1.620600,0.000000
1152.900000,1.620600,0.000000
1156.300000,1.620500,0.000000
1159.700000,1.620500,0.000000
1163.100000,1.620400,0.000000
1166.500000,1.620300,0.000000
1169.900000,1.620300,0.000000
1173.300000,1.620200,0.000000
1176.700000,1.620200,0.000000
1180.100000,1.620100,0.000000
1183.500000,1.620100,0.000000
1186.900000,1.620000,0.000000
1190.300000,1.620000,0.000000
1193.700000,1.619900,0.000000
1197.100000,1.619800,0.000000
1200.500000,1.619800,0.000000
1204.000000,1.619700,0.000000
1207.400000,1.619700,0.000000
1210.800000,1.619600,0.000000
1214.200000,1.619600,0.000000
1217.600000,1.619500,0.000000
1221.000000,1.619500,0.000000
1224.400000,1.619400,0.000000
1227.800000,1.619400,0.000000
1231.200000,1.619300,0.000000
1234.700000,1.619300,0.000000
1238.100000,1.619200,0.000000
1241.500000,1.619200,0.000000
1244.900000,1.619200,0.000000
1248.300000,1.619100,0.000000
1251.700000,1.619100,0.000000
1255.100000,1.619000,0.000000
1258.600000,1.619000,0.000000
1262.000000,1.618900,0.000000
1265.400000,1.618900,0.000000
1268.800000,1.618800,0.000000
1272.200000,1.618800,0.000000
1275.700000,1.618700,0.000000
1279.100000,1.618700,0.000000
1282.500000,1.618700,0.000000
1285.900000,1.618600,0.000000
1289.300000,1.618600,0.000000
1292.800000,1.618500,0.000000
1296.200000,1.618500,0.000000
1299.600000,1.618500,0.000000
1303.000000,1.618400,0.000000
1306.500000,1.618400,0.000000
1309.900000,1.618300,0.000000
1313.300000,1.618300,0.000000
1316.700000,1.618300,0.000000
1320.200000,1.618200,0.000000
1323.600000,1.618200,0.000000
1327.000000,1.618100,0.000000
1330.500000,1.618100,0.000000
1333.900000,1.618100,0.000000
1337.300000,1.618000,0.000000
1340.700000,1.618000,0.000000
1344.200000,1.617900,0.000000
1347.600000,1.617900,0.000000
1351.000000,1.617900,0.000000
1354.500000,1.617800,0.000000
1357.900000,1.617800,0.000000
1361.300000,1.617800,0.000000
1364.800000,1.617700,0.000000
1368.200000,1.617700,0.000000
1371.600000,1.617700,0.000000
1375.100000,1.617600,0.000000
1378.500000,1.617600,0.000000
1381.900000,1.617600,0.000000
1385.400000,1.617500,0.000000
1388.800000,1.617500,0.000000
1392.300000,1.617500,0.000000
1395.700000,1.617400,0.000000
1399.100000,1.617400,0.000000
1402.600000,1.617400,0.000000
1406.000000,1.617300,0.000000
1409.500000,1.617300,0.000000
1412.900000,1.617300,0.000000
1416.300000,1.617200,0.000000
1419.800000,1.617200,0.000000
1423.200000,1.617200,0.000000
1426.700000,1.617100,0.000000
1430.100000,1.617100,0.000000
1433.600000,1.617100,0.000000
1437.000000,1.617000,0.000000
1440.400000,1.617000,0.000000
1443.900000,1.617000,0.000000
1447.300000,1.617000,0.000000
1450.800000,1.616900,0.000000
1454.200000,1.616900,0.000000
1457.700000,1.616900,0.000000
1461.100000,1.616800,0.000000
1464.600000,1.616800,0.000000
1468.000000,1.616800,0.000000
1471.500000,1.616800,0.000000
1474.900000,1.616700,0.000000
1478.400000,1.616700,0.000000
1481.800000,1.616700,0.000000
1485.300000,1.616600,0.000000
1488.700000,1.616600,0.000000
1492.200000,1.616600,0.000000
1495.700000,1.616600,0.000000
1499.100000,1.616500,0.000000
1502.600000,1.616500,0.000000
1506.000000,1.616500,0.000000
1509.500000,1.616500,0.000000
1512.900000,1.616400,0.000000
1516.400000,1.616400,0.000000
1519.800000,1.616400,0.000000
1523.300000,1.616400,0.000000
1526.800000,1.616300,0.000000
1530.200000,1.616300,0.000000
1533.700000,1.616300,0.000000
1537.100000,1.616300,0.000000
1540.600000,1.616200,0.000000
1544.100000,1.616200,0.000000
1547.500000,1.616200,0.000000
1551.000000,1.616200,0.000000
1554.500000,1.616100,0.000000
1557.900000,1.616100,0.000000
1561.400000,1.616100,0.000000
1564.900000,1.616100,0.000000
1568.300000,1.616000,0.000000
1571.800000,1.616000,0.000000
1575.200000,1.616000,0.000000
1578.700000,1.616000,0.000000
1582.200000,1.615900,0.000000
1585.700000,1.615900,0.000000
1589.100000,1.615900,0.000000
1592.600000,1.615900,0.000000
1596.100000,1.615900,0.000000
1599.500000,1.615800,0.000000
1603.000000,1.615800,0.000000
1606.500000,1.615800,0.000000
1609.900000,1.615800,0.000000
1613.400000,1.615800,0.000000
1616.900000,1.615700,0.000000
1620.400000,1.615700,0.000000
1623.800000,1.615700,0.000000
1627.300000,1.615700,0.000000
1630.800000,1.615600,0.000000
1634.300000,1.615600,0.000000
1637.700000,1.615600,0.000000
1641.200000,1.615600,0.000000
1644.700000,1.615600,0.000000
1648.200000,1.615500,0.000000
1651.600000,1.615500,0.000000
1655.100000,1.615500,0.000000
1658.600000,1.615500,0.000000
1662.100000,1.615500,0.000000
1665.600000,1.615400,0.000000
1669.000000,1.615400,0.000000
1672.500000,1.615400,0.000000
1676.000000,1.615400,0.000000
1679.500000,1.615400,0.000000
1683.000000,1.615400,0.000000
1686.500000,1.615300,0.000000
1689.900000,1.615300,0.000000
