wavelength_nm,n,k
275.000000,1.514400,0.091945
276.430000,1.513000,0.092783
277.870000,1.510300,0.094421
279.300000,1.506700,0.096790
280.730000,1.502300,0.099819
282.170000,1.497300,0.103460
283.600000,1.491800,0.107700
285.030000,1.485800,0.112610
286.470000,1.479500,0.118290
287.900000,1.473000,0.124880
289.330000,1.466600,0.132540
290.770000,1.460700,0.141330
292.200000,1.455400,0.151270
293.640000,1.451000,0.162270
295.070000,1.447700,0.174160
296.500000,1.445700,0.186750
297.940000,1.445000,0.199810
299.370000,1.445800,0.213130
300.800000,1.448200,0.226470
302.240000,1.452200,0.239590
303.670000,1.457900,0.252240
305.100000,1.465300,0.264150
306.540000,1.474400,0.275050
307.970000,1.485000,0.284720
309.400000,1.496900,0.293010
310.840000,1.509800,0.299840
312.270000,1.523300,0.305250
313.700000,1.537300,0.309310
315.140000,1.551300,0.312130
316.570000,1.565400,0.313800
318.000000,1.579400,0.314370
319.440000,1.593100,0.313870
320.870000,1.606400,0.312330
322.310000,1.619200,0.309800
323.740000,1.631200,0.306410
325.170000,1.642300,0.302310
326.610000,1.652400,0.297730
328.040000,1.661400,0.292920
329.470000,1.669500,0.288090
330.910000,1.676900,0.283380
332.340000,1.683900,0.278820
333.770000,1.691000,0.274360
335.210000,1.698300,0.269830
336.640000,1.706100,0.265040
338.070000,1.714400,0.259790
339.510000,1.723100,0.253910
340.940000,1.731800,0.247300
342.370000,1.740100,0.239910
343.810000,1.747600,0.231700
345.240000,1.754000,0.222590
346.670000,1.758700,0.212460
348.110000,1.761600,0.201180
349.540000,1.762500,0.188680
350.970000,1.761300,0.175070
352.410000,1.758100,0.160690
353.840000,1.753000,0.146110
355.280000,1.746300,0.132030
356.710000,1.738200,0.119090
358.140000,1.729000,0.107810
359.580000,1.719000,0.098429
361.010000,1.708400,0.090975
362.440000,1.697600,0.085272
363.880000,1.686700,0.081051
365.310000,1.676000,0.078023
366.740000,1.665500,0.075936
368.180000,1.655300,0.074604
369.610000,1.645500,0.073921
371.040000,1.636100,0.073850
372.480000,1.626900,0.074413
373.910000,1.618100,0.075652
375.340000,1.609500,0.077591
376.780000,1.601200,0.080202
378.210000,1.593200,0.083383
379.640000,1.585500,0.086974
381.080000,1.578400,0.090799
382.510000,1.571700,0.094712
383.940000,1.565500,0.098632
385.380000,1.559700,0.102550
386.810000,1.554400,0.106500
388.250000,1.549400,0.110530
389.680000,1.544600,0.114650
391.110000,1.540000,0.118890
392.550000,1.535500,0.123230
393.980000,1.531200,0.127710
395.410000,1.527100,0.132370
396.850000,1.523300,0.137260
398.280000,1.519800,0.142440
399.710000,1.516600,0.147890
401.150000,1.513700,0.153610
402.580000,1.511100,0.159540
404.010000,1.508800,0.165650
405.450000,1.506800,0.171910
406.880000,1.505000,0.178330
408.310000,1.503500,0.184910
409.750000,1.502400,0.191690
411.180000,1.501600,0.198690
412.610000,1.501100,0.205930
414.050000,1.501000,0.213430
415.480000,1.501400,0.221170
416.920000,1.502200,0.229100
418.350000,1.503500,0.237120
419.780000,1.505300,0.245120
421.220000,1.507400,0.252980
422.650000,1.510000,0.260620
424.080000,1.513100,0.268040
425.520000,1.516500,0.275290
426.950000,1.520400,0.282420
428.380000,1.524800,0.289490
429.820000,1.529800,0.296490
431.250000,1.535200,0.303370
432.680000,1.541100,0.310070
434.120000,1.547600,0.316530
435.550000,1.554400,0.322760
436.980000,1.561700,0.328790
438.420000,1.569400,0.334680
439.850000,1.577600,0.340470
441.280000,1.586300,0.346160
442.720000,1.595600,0.351670
444.150000,1.605300,0.356870
445.580000,1.615600,0.361610
447.020000,1.626200,0.365750
448.450000,1.637000,0.369200
449.890000,1.648000,0.371930
451.320000,1.659100,0.373970
452.750000,1.670300,0.375400
454.190000,1.681500,0.376310
455.620000,1.692900,0.376790
457.050000,1.704500,0.376930
458.490000,1.716300,0.376820
459.920000,1.728300,0.376510
461.350000,1.740500,0.376040
462.790000,1.752900,0.375390
464.220000,1.765500,0.374500
465.650000,1.778100,0.373300
467.090000,1.790900,0.371680
468.520000,1.803500,0.369560
469.950000,1.816000,0.366900
471.390000,1.828400,0.363660
472.820000,1.840500,0.359860
474.250000,1.852400,0.355520
475.690000,1.864200,0.350660
477.120000,1.875800,0.345260
478.560000,1.887500,0.339260
479.990000,1.899000,0.332570
481.420000,1.910400,0.325070
482.860000,1.921500,0.316670
484.290000,1.932100,0.307360
485.720000,1.942100,0.297200
487.160000,1.951300,0.286360
488.590000,1.959600,0.275060
490.020000,1.967000,0.263540
491.460000,1.973400,0.251970
492.890000,1.978800,0.240440
494.320000,1.983100,0.228960
495.760000,1.986500,0.217430
497.190000,1.988700,0.205720
498.620000,1.990100,0.193760
500.060000,1.990400,0.181540
501.490000,1.989800,0.169210
502.920000,1.988300,0.156970
504.360000,1.985800,0.145010
505.790000,1.982300,0.133510
507.220000,1.977900,0.122540
508.660000,1.972700,0.112150
510.090000,1.966700,0.102350
511.530000,1.960000,0.093177
512.960000,1.952700,0.084674
514.390000,1.944900,0.076832
515.830000,1.936800,0.069585
517.260000,1.928500,0.062810
518.690000,1.920100,0.056369
520.130000,1.911800,0.050166
521.560000,1.903600,0.044177
522.990000,1.895600,0.038461
524.430000,1.887900,0.033132
525.860000,1.880400,0.028314
527.290000,1.873300,0.024107
528.730000,1.866600,0.020557
530.160000,1.860200,0.017651
531.590000,1.854100,0.015320
533.030000,1.848400,0.013463
534.460000,1.843100,0.011970
535.890000,1.838000,0.010744
537.330000,1.833100,0.009715
538.760000,1.828400,0.008842
540.190000,1.823900,0.008103
541.630000,1.819500,0.007484
543.060000,1.815300,0.006971
544.500000,1.811200,0.006548
545.930000,1.807500,0.006204
547.360000,1.804000,0.005927
548.800000,1.800800,0.005709
550.230000,1.797900,0.005540
551.660000,1.795200,0.005409
553.100000,1.792700,0.005308
554.530000,1.790400,0.005230
555.960000,1.788100,0.005170
557.400000,1.786100,0.005126
558.830000,1.784100,0.005098
560.260000,1.782400,0.005081
561.700000,1.780700,0.005072
563.130000,1.779200,0.005068
564.560000,1.777800,0.005064
566.000000,1.776500,0.005054
567.430000,1.775200,0.005028
568.860000,1.774000,0.004974
570.300000,1.772800,0.004872
571.730000,1.771600,0.004707
573.170000,1.770400,0.004469
574.600000,1.769200,0.004158
576.030000,1.767900,0.003786
577.470000,1.766700,0.003374
578.900000,1.765400,0.002941
580.330000,1.764200,0.002508
581.770000,1.763000,0.002093
583.200000,1.761900,0.001714
584.630000,1.760700,0.001384
586.070000,1.759600,0.001112
587.500000,1.758400,0.000897
588.930000,1.757200,0.000727
590.370000,1.756000,0.000587
591.800000,1.754800,0.000463
593.230000,1.753500,0.000347
594.670000,1.752200,0.000241
596.100000,1.751000,0.000153
597.530000,1.749800,0.000087
598.970000,1.748600,0.000043
600.400000,1.747400,0.000019
601.830000,1.746200,0.000007
603.270000,1.745100,0.000004
604.700000,1.743900,0.000006
606.140000,1.742800,0.000013
607.570000,1.741700,0.000030
609.000000,1.740600,0.000056
610.440000,1.739600,0.000094
611.870000,1.738600,0.000138
613.300000,1.737600,0.000181
614.740000,1.736700,0.000213
616.170000,1.735800,0.000225
617.600000,1.734900,0.000214
619.040000,1.734000,0.000186
620.470000,1.733000,0.000152
621.900000,1.732100,0.000124
623.340000,1.731200,0.000113
624.770000,1.730200,0.000124
626.200000,1.729300,0.000152
627.640000,1.728400,0.000186
629.070000,1.727500,0.000214
630.500000,1.726600,0.000225
631.940000,1.725800,0.000213
633.370000,1.725000,0.000181
634.810000,1.724300,0.000138
636.240000,1.723700,0.000094
637.670000,1.723000,0.000057
639.110000,1.722400,0.000031
640.540000,1.721800,0.000018
641.970000,1.721100,0.000018
643.410000,1.720500,0.000031
644.840000,1.719700,0.000057
646.270000,1.719000,0.000094
647.710000,1.718300,0.000138
649.140000,1.717700,0.000181
650.570000,1.717000,0.000214
652.010000,1.716400,0.000229
653.440000,1.715700,0.000226
654.870000,1.715000,0.000211
656.310000,1.714400,0.000195
657.740000,1.713800,0.000188
659.170000,1.713200,0.000195
660.610000,1.712800,0.000211
662.040000,1.712300,0.000226
663.470000,1.711900,0.000229
664.910000,1.711400,0.000214
666.340000,1.710900,0.000181
667.780000,1.710200,0.000138
669.210000,1.709500,0.000094
670.640000,1.708700,0.000056
672.080000,1.707900,0.000030
673.510000,1.707100,0.000014
674.940000,1.706400,0.000007
676.380000,1.705800,0.000007
677.810000,1.705300,0.000014
679.240000,1.704900,0.000030
680.680000,1.704400,0.000056
682.110000,1.704000,0.000094
683.540000,1.703500,0.000138
684.980000,1.703000,0.000181
686.410000,1.702500,0.000213
687.840000,1.702000,0.000226
689.280000,1.701600,0.000218
690.710000,1.701200,0.000195
692.140000,1.700900,0.000168
693.580000,1.700600,0.000151
695.010000,1.700300,0.000152
696.440000,1.699900,0.000173
697.880000,1.699500,0.000208
699.310000,1.698900,0.000247
700.750000,1.698200,0.000282
702.180000,1.697500,0.000307
703.610000,1.696800,0.000319
705.050000,1.696200,0.000319
706.480000,1.695600,0.000307
707.910000,1.695100,0.000281
709.350000,1.694600,0.000242
710.780000,1.694200,0.000195
712.210000,1.693700,0.000143
713.650000,1.693200,0.000096
715.080000,1.692700,0.000057
716.510000,1.692100,0.000030
717.950000,1.691500,0.000013
719.380000,1.690900,0.000005
720.810000,1.690400,0.000003
722.250000,1.690000,0.000005
723.680000,1.689600,0.000013
725.110000,1.689400,0.000030
726.550000,1.689200,0.000057
727.980000,1.689100,0.000094
729.420000,1.689000,0.000140
730.850000,1.689000,0.000186
732.280000,1.689000,0.000226
733.720000,1.689000,0.000254
735.150000,1.688900,0.000269
736.580000,1.688700,0.000277
738.020000,1.688400,0.000282
739.450000,1.687900,0.000288
740.880000,1.687400,0.000299
742.320000,1.686700,0.000310
743.750000,1.686100,0.000320
745.180000,1.685400,0.000324
746.620000,1.684900,0.000321
748.050000,1.684400,0.000309
749.480000,1.684000,0.000286
750.920000,1.683700,0.000256
752.350000,1.683300,0.000224
753.780000,1.683000,0.000200
755.220000,1.682700,0.000189
756.650000,1.682500,0.000195
758.080000,1.682300,0.000211
759.520000,1.682100,0.000226
760.950000,1.681900,0.000231
762.390000,1.681700,0.000219
763.820000,1.681600,0.000195
765.250000,1.681400,0.000170
766.690000,1.681200,0.000156
768.120000,1.681000,0.000164
769.550000,1.680800,0.000199
770.990000,1.680700,0.000256
772.420000,1.680700,0.000325
773.850000,1.680700,0.000394
775.290000,1.680800,0.000452
776.720000,1.680900,0.000493
778.150000,1.681000,0.000514
779.590000,1.680900,0.000518
781.020000,1.680800,0.000508
782.450000,1.680600,0.000491
783.890000,1.680300,0.000472
785.320000,1.679900,0.000455
786.750000,1.679600,0.000444
788.190000,1.679100,0.000439
789.620000,1.678700,0.000442
791.060000,1.678200,0.000450
792.490000,1.677700,0.000459
793.920000,1.677300,0.000461
795.360000,1.676800,0.000452
796.790000,1.676400,0.000424
798.220000,1.675900,0.000376
799.660000,1.675500,0.000312
801.090000,1.675200,0.000239
802.520000,1.674900,0.000168
803.960000,1.674700,0.000108
805.390000,1.674500,0.000063
806.820000,1.674400,0.000036
808.260000,1.674300,0.000028
809.690000,1.674100,0.000036
811.120000,1.673900,0.000064
812.560000,1.673600,0.000109
813.990000,1.673300,0.000173
815.420000,1.673000,0.000251
816.860000,1.672700,0.000336
818.290000,1.672500,0.000419
819.720000,1.672400,0.000488
821.160000,1.672200,0.000534
822.590000,1.672100,0.000549
824.030000,1.672000,0.000533
825.460000,1.671900,0.000493
826.890000,1.671700,0.000442
828.330000,1.671400,0.000397
829.760000,1.671200,0.000373
831.190000,1.671000,0.000378
832.630000,1.670900,0.000413
834.060000,1.670700,0.000472
835.490000,1.670600,0.000546
836.930000,1.670500,0.000624
838.360000,1.670300,0.000696
839.790000,1.670100,0.000752
841.230000,1.669800,0.000782
842.660000,1.669600,0.000776
844.090000,1.669300,0.000730
845.530000,1.669200,0.000650
846.960000,1.669100,0.000550
848.390000,1.669100,0.000451
849.830000,1.669200,0.000374
851.260000,1.669300,0.000333
852.690000,1.669500,0.000329
854.130000,1.669600,0.000351
855.560000,1.669700,0.000381
857.000000,1.669700,0.000401
858.430000,1.669500,0.000397
859.860000,1.669000,0.000368
861.300000,1.668400,0.000320
862.730000,1.667800,0.000267
864.160000,1.667100,0.000224
865.600000,1.666400,0.000201
867.030000,1.665900,0.000200
868.460000,1.665400,0.000212
869.900000,1.665100,0.000226
871.330000,1.664800,0.000229
872.760000,1.664500,0.000214
874.200000,1.664400,0.000181
875.630000,1.664300,0.000138
877.060000,1.664400,0.000094
878.500000,1.664500,0.000056
879.930000,1.664700,0.000030
881.360000,1.664900,0.000013
882.800000,1.665100,0.000005
884.230000,1.665200,0.000002
885.670000,1.665200,0.000001
887.100000,1.665200,0.000002
888.530000,1.665000,0.000007
889.970000,1.664800,0.000020
891.400000,1.664600,0.000048
892.830000,1.664400,0.000098
894.270000,1.664100,0.000175
895.700000,1.663800,0.000276
897.130000,1.663600,0.000385
898.570000,1.663300,0.000480
900.000000,1.663200,0.000536
