wavelength_nm,n,k
300.000300,2.052480,0.242630
301.100860,2.063170,0.238930
302.201400,2.071570,0.231100
303.301940,2.076780,0.220450
304.402500,2.078510,0.208340
305.503050,2.076930,0.195960
306.603600,2.072490,0.184180
307.704160,2.065780,0.173620
308.804700,2.057360,0.164630
309.905240,2.047770,0.157400
311.005800,2.037500,0.152010
312.106350,2.026950,0.148460
313.206900,2.016490,0.146710
314.307460,2.006480,0.146700
315.408000,1.997280,0.148320
316.508540,1.989230,0.151410
317.609100,1.982700,0.155710
318.709660,1.978010,0.160860
319.810200,1.975420,0.166370
320.910740,1.975020,0.171610
322.011300,1.976690,0.175890
323.111850,1.980030,0.178580
324.212400,1.984370,0.179200
325.312960,1.988900,0.177580
326.413500,1.992800,0.173910
327.514040,1.995420,0.168640
328.614600,1.996330,0.162440
329.715150,1.995390,0.156040
330.815700,1.992700,0.150130
331.916260,1.988530,0.145340
333.016800,1.983340,0.142240
334.117340,1.977750,0.141290
335.217900,1.972630,0.142850
336.318450,1.969220,0.147020
337.419000,1.969060,0.153270
338.519560,1.973680,0.159990
339.620100,1.983570,0.164270
340.720640,1.997000,0.162990
341.821200,2.010220,0.154800
342.921750,2.019620,0.141280
344.022300,2.023770,0.125520
345.122860,2.023270,0.110110
346.223420,2.019520,0.096420
347.323970,2.013840,0.084820
348.424500,2.007180,0.075190
349.525050,2.000130,0.067240
350.625600,1.993020,0.060640
351.726170,1.986050,0.055130
352.826720,1.979300,0.050480
353.927250,1.972810,0.046520
355.027800,1.966610,0.043110
356.128360,1.960680,0.040150
357.228900,1.955010,0.037550
358.329470,1.949590,0.035260
359.430020,1.944410,0.033220
360.530550,1.939450,0.031400
361.631100,1.934690,0.029760
362.731660,1.930120,0.028270
363.832200,1.925720,0.026920
364.932770,1.921490,0.025680
366.033330,1.917410,0.024550
367.133850,1.913480,0.023510
368.234400,1.909680,0.022550
369.334960,1.906000,0.021660
370.435520,1.902450,0.020830
371.536070,1.899000,0.020060
372.636600,1.895660,0.019340
373.737150,1.892420,0.018670
374.837700,1.889280,0.018040
375.938260,1.886220,0.017450
377.038820,1.883250,0.016890
378.139370,1.880360,0.016360
379.239900,1.877550,0.015870
380.340450,1.874810,0.015400
381.441000,1.872140,0.014950
382.541560,1.869530,0.014530
383.642120,1.866990,0.014130
384.742650,1.864510,0.013750
385.843200,1.862100,0.013390
386.943760,1.859730,0.013040
388.044300,1.857420,0.012720
389.144870,1.855170,0.012400
390.245420,1.852960,0.012100
391.345950,1.850800,0.011820
392.446500,1.848690,0.011540
393.547060,1.846620,0.011280
394.647600,1.844600,0.011020
395.748170,1.842620,0.010780
396.848720,1.840680,0.010550
397.949250,1.838770,0.010330
399.049800,1.836910,0.010110
400.150360,1.835080,0.009900
401.250920,1.833290,0.009710
402.351470,1.831530,0.009510
403.452000,1.829800,0.009330
404.552550,1.828110,0.009150
405.653100,1.826450,0.008980
406.753660,1.824820,0.008810
407.854220,1.823210,0.008650
408.954770,1.821640,0.008490
410.055300,1.820100,0.008340
411.155850,1.818580,0.008200
412.256400,1.817080,0.008060
413.356960,1.815620,0.007920
414.457520,1.814180,0.007790
415.558070,1.812760,0.007660
416.658600,1.811360,0.007540
417.759160,1.809990,0.007420
418.859700,1.808640,0.007300
419.960270,1.807320,0.007190
421.060820,1.806010,0.007080
422.161350,1.804720,0.006970
423.261900,1.803460,0.006860
424.362460,1.802210,0.006760
425.463000,1.800990,0.006660
426.563570,1.799780,0.006570
427.664120,1.798590,0.006470
428.764650,1.797420,0.006380
429.865200,1.796270,0.006290
430.965760,1.795130,0.006210
432.066300,1.794010,0.006120
433.166870,1.792910,0.006040
434.267430,1.791820,0.005960
435.367980,1.790750,0.005880
436.468500,1.789700,0.005810
437.569060,1.788650,0.005730
438.669620,1.787630,0.005660
439.770170,1.786620,0.005590
440.870730,1.785620,0.005520
441.971280,1.784630,0.005450
443.071800,1.783660,0.005390
444.172360,1.782700,0.005320
445.272920,1.781760,0.005260
446.373470,1.780830,0.005200
447.474030,1.779910,0.005140
448.574600,1.779000,0.005080
449.675100,1.778100,0.005020
450.775670,1.777220,0.004970
451.876220,1.776350,0.004910
452.976780,1.775490,0.004860
454.077330,1.774640,0.004800
455.177860,1.773800,0.004750
456.278400,1.772970,0.004700
457.378970,1.772150,0.004650
458.479520,1.771340,0.004600
459.580080,1.770540,0.004560
460.680630,1.769750,0.004510
461.781160,1.768970,0.004460
462.881700,1.768200,0.004420
463.982270,1.767440,0.004370
465.082820,1.766690,0.004330
466.183380,1.765950,0.004290
467.283900,1.765220,0.004250
468.384460,1.764490,0.004210
469.485020,1.763780,0.004170
470.585570,1.763070,0.004130
471.686130,1.762370,0.004090
472.786680,1.761680,0.004050
473.887200,1.761000,0.004010
474.987760,1.760320,0.003980
476.088320,1.759650,0.003940
477.188870,1.758990,0.003900
478.289430,1.758340,0.003870
479.389980,1.757690,0.003840
480.490500,1.757050,0.003800
481.591060,1.756420,0.003770
482.691620,1.755800,0.003740
483.792180,1.755180,0.003700
484.892730,1.754570,0.003670
485.993260,1.753970,0.003640
487.093800,1.753370,0.003610
488.194370,1.752780,0.003580
489.294920,1.752190,0.003550
490.395480,1.751610,0.003520
491.496030,1.751040,0.003500
492.596560,1.750470,0.003470
493.697100,1.749910,0.003440
494.797670,1.749360,0.003410
495.898220,1.748810,0.003390
496.998780,1.748270,0.003360
498.099330,1.747730,0.003330
499.199860,1.747200,0.003310
500.300400,1.746670,0.003280
501.400970,1.746150,0.003260
502.501530,1.745630,0.003230
503.602080,1.745120,0.003210
504.702600,1.744610,0.003190
505.803160,1.744110,0.003160
506.903720,1.743620,0.003140
508.004270,1.743130,0.003120
509.104830,1.742640,0.003100
510.205380,1.742160,0.003070
511.305900,1.741680,0.003050
512.406500,1.741210,0.003030
513.507000,1.740740,0.003010
514.607540,1.740280,0.002990
515.708100,1.739820,0.002970
516.808650,1.739360,0.002950
517.909240,1.738910,0.002930
519.009770,1.738470,0.002910
520.110350,1.738030,0.002890
521.210900,1.737590,0.002870
522.311400,1.737160,0.002850
523.412000,1.736730,0.002830
524.512500,1.736300,0.002810
525.613100,1.735880,0.002800
526.713600,1.735460,0.002780
527.814200,1.735050,0.002760
528.914730,1.734640,0.002740
530.015260,1.734230,0.002730
531.115840,1.733830,0.002710
532.216400,1.733430,0.002690
533.316960,1.733030,0.002680
534.417500,1.732640,0.002660
535.518000,1.732250,0.002640
536.618600,1.731870,0.002630
537.719100,1.731490,0.002610
538.819700,1.731110,0.002600
539.920200,1.730730,0.002580
541.020750,1.730360,0.002560
542.121340,1.729990,0.002550
543.221860,1.729630,0.002530
544.322450,1.729270,0.002520
545.423000,1.728910,0.002510
546.523560,1.728550,0.002490
547.624100,1.728200,0.002480
548.724600,1.727850,0.002460
549.825200,1.727500,0.002450
550.925700,1.727160,0.002440
552.026300,1.726820,0.002420
553.126830,1.726480,0.002410
554.227360,1.726140,0.002390
555.327940,1.725810,0.002380
556.428470,1.725480,0.002370
557.529050,1.725150,0.002360
558.629600,1.724830,0.002340
559.730100,1.724510,0.002330
560.830700,1.724190,0.002320
561.931200,1.723870,0.002310
563.031800,1.723560,0.002290
564.132300,1.723250,0.002280
565.232900,1.722940,0.002270
566.333440,1.722630,0.002260
567.433960,1.722330,0.002250
568.534550,1.722030,0.002240
569.635100,1.721730,0.002220
570.735660,1.721430,0.002210
571.836200,1.721140,0.002200
572.936700,1.720840,0.002190
574.037300,1.720550,0.002180
575.137800,1.720270,0.002170
576.238400,1.719980,0.002160
577.338900,1.719700,0.002150
578.439450,1.719420,0.002140
579.540040,1.719140,0.002130
580.640560,1.718860,0.002120
581.741150,1.718590,0.002110
582.841700,1.718310,0.002100
583.942200,1.718040,0.002090
585.042800,1.717780,0.002080
586.143300,1.717510,0.002070
587.243900,1.717240,0.002060
588.344400,1.716980,0.002050
589.445000,1.716720,0.002040
590.545530,1.716460,0.002030
591.646060,1.716210,0.002020
592.746640,1.715950,0.002010
593.847170,1.715700,0.002000
594.947750,1.715450,0.001990
596.048300,1.715200,0.001980
597.148800,1.714950,0.001970
598.249400,1.714710,0.001970
599.349900,1.714460,0.001960
600.450500,1.714220,0.001950
601.551000,1.713980,0.001940
602.651550,1.713740,0.001930
603.752140,1.713510,0.001920
604.852660,1.713270,0.001910
605.953250,1.713040,0.001910
607.053800,1.712810,0.001900
608.154360,1.712580,0.001890
609.254900,1.712350,0.001880
610.355470,1.712120,0.001870
611.456000,1.711900,0.001870
612.556500,1.711680,0.001860
613.657100,1.711450,0.001850
614.757600,1.711230,0.001840
615.858200,1.711020,0.001830
616.958740,1.710800,0.001830
618.059270,1.710580,0.001820
619.159850,1.710370,0.001810
620.260400,1.710160,0.001800
621.360960,1.709940,0.001800
622.461500,1.709730,0.001790
623.562000,1.709530,0.001780
624.662600,1.709320,0.001780
625.763100,1.709110,0.001770
626.863700,1.708910,0.001760
627.964230,1.708710,0.001760
629.064800,1.708500,0.001750
630.165340,1.708300,0.001740
631.265870,1.708110,0.001730
632.366460,1.707910,0.001730
633.467000,1.707710,0.001720
634.567570,1.707520,0.001710
635.668100,1.707320,0.001710
636.768600,1.707130,0.001700
637.869200,1.706940,0.001700
638.969700,1.706750,0.001690
640.070300,1.706560,0.001680
641.170840,1.706380,0.001680
642.271360,1.706190,0.001670
643.371950,1.706010,0.001660
644.472500,1.705820,0.001660
645.573060,1.705640,0.001650
646.673600,1.705460,0.001650
647.774200,1.705280,0.001640
648.874700,1.705100,0.001630
649.975200,1.704920,0.001630
651.075800,1.704750,0.001620
652.176330,1.704570,0.001620
653.276900,1.704400,0.001610
654.377440,1.704220,0.001600
655.477970,1.704050,0.001600
656.578550,1.703880,0.001590
657.679100,1.703710,0.001590
658.779660,1.703540,0.001580
659.880200,1.703370,0.001580
660.980700,1.703210,0.001570
662.081300,1.703040,0.001570
663.181800,1.702880,0.001560
664.282400,1.702710,0.001550
665.382930,1.702550,0.001550
666.483500,1.702390,0.001540
667.584050,1.702230,0.001540
668.684600,1.702070,0.001530
669.785160,1.701910,0.001530
670.885700,1.701750,0.001520
671.986270,1.701590,0.001520
673.086800,1.701440,0.001510
674.187300,1.701280,0.001510
675.287900,1.701130,0.001500
676.388400,1.700980,0.001500
677.489000,1.700820,0.001490
678.589540,1.700670,0.001490
679.690060,1.700520,0.001480
680.790650,1.700370,0.001480
681.891200,1.700230,0.001470
682.991760,1.700080,0.001470
684.092300,1.699930,0.001460
685.192800,1.699790,0.001460
686.293400,1.699640,0.001460
687.393900,1.699500,0.001450
688.494500,1.699350,0.001450
689.595030,1.699210,0.001440
690.695600,1.699070,0.001440
691.796140,1.698930,0.001430
692.896670,1.698790,0.001430
693.997250,1.698650,0.001420
695.097800,1.698510,0.001420
696.198360,1.698370,0.001410
697.298900,1.698240,0.001410
698.399500,1.698100,0.001410
699.500000,1.697970,0.001400
700.600500,1.697830,0.001400
701.701100,1.697700,0.001390
702.801640,1.697570,0.001390
703.902200,1.697430,0.001380
705.002750,1.697300,0.001380
706.103300,1.697170,0.001380
707.203860,1.697040,0.001370
708.304400,1.696910,0.001370
709.404970,1.696780,0.001360
710.505500,1.696660,0.001360
711.606100,1.696530,0.001360
712.706600,1.696400,0.001350
713.807100,1.696280,0.001350
714.907700,1.696150,0.001340
716.008240,1.696030,0.001340
717.108800,1.695910,0.001340
718.209350,1.695780,0.001330
719.309900,1.695660,0.001330
720.410460,1.695540,0.001330
721.511000,1.695420,0.001320
722.611600,1.695300,0.001320
723.712100,1.695180,0.001310
724.812600,1.695060,0.001310
725.913200,1.694940,0.001310
727.013730,1.694820,0.001300
728.114300,1.694710,0.001300
729.214840,1.694590,0.001300
730.315400,1.694480,0.001290
731.415950,1.694360,0.001290
732.516500,1.694250,0.001280
733.617070,1.694130,0.001280
734.717600,1.694020,0.001280
735.818200,1.693910,0.001270
736.918700,1.693800,0.001270
738.019200,1.693680,0.001270
739.119800,1.693570,0.001260
740.220340,1.693460,0.001260
741.320900,1.693350,0.001260
742.421450,1.693250,0.001250
743.522000,1.693140,0.001250
744.622560,1.693030,0.001250
745.723100,1.692920,0.001240
746.823670,1.692820,0.001240
747.924200,1.692710,0.001240
749.024800,1.692600,0.001230
750.125300,1.692500,0.001230
751.225800,1.692390,0.001230
752.326400,1.692290,0.001220
753.426940,1.692190,0.001220
754.527500,1.692080,0.001220
755.628050,1.691980,0.001210
756.728600,1.691880,0.001210
757.829160,1.691780,0.001210
758.929700,1.691680,0.001210
760.030300,1.691580,0.001200
761.130800,1.691480,0.001200
762.231300,1.691380,0.001200
763.331900,1.691280,0.001190
764.432430,1.691180,0.001190
765.533000,1.691090,0.001190
766.633540,1.690990,0.001180
767.734100,1.690890,0.001180
768.834660,1.690800,0.001180
769.935200,1.690700,0.001180
771.035770,1.690600,0.001170
772.136300,1.690510,0.001170
773.236900,1.690420,0.001170
774.337400,1.690320,0.001160
775.437900,1.690230,0.001160
776.538500,1.690140,0.001160
777.639040,1.690040,0.001160
778.739600,1.689950,0.001150
779.840150,1.689860,0.001150
780.940700,1.689770,0.001150
782.041260,1.689680,0.001140
783.141800,1.689590,0.001140
784.242400,1.689500,0.001140
785.342900,1.689410,0.001140
786.443500,1.689320,0.001130
787.544000,1.689230,0.001130
788.644530,1.689140,0.001130
789.745100,1.689060,0.001120
790.845640,1.688970,0.001120
791.946200,1.688880,0.001120
793.046750,1.688800,0.001120
794.147340,1.688710,0.001110
795.247860,1.688630,0.001110
796.348400,1.688540,0.001110
797.449000,1.688460,0.001110
798.549500,1.688370,0.001100
799.650100,1.688290,0.001100
800.750600,1.688200,0.001100
801.851140,1.688120,0.001100
802.951700,1.688040,0.001090
804.052250,1.687960,0.001090
805.152830,1.687870,0.001090
806.253360,1.687790,0.001090
807.353900,1.687710,0.001080
808.454470,1.687630,0.001080
809.555000,1.687550,0.001080
810.655600,1.687470,0.001080
811.756100,1.687390,0.001070
812.856700,1.687310,0.001070
813.957200,1.687230,0.001070
815.057740,1.687160,0.001070
816.158300,1.687080,0.001060
817.258850,1.687000,0.001060
818.359440,1.686920,0.001060
819.459960,1.686850,0.001060
820.560500,1.686770,0.001060
821.661100,1.686690,0.001050
822.761600,1.686620,0.001050
823.862200,1.686540,0.001050
824.962700,1.686470,0.001050
826.063230,1.686390,0.001040
827.163800,1.686320,0.001040
828.264340,1.686240,0.001040
829.364900,1.686170,0.001040
830.465450,1.686090,0.001030
831.566040,1.686020,0.001030
832.666560,1.685950,0.001030
833.767100,1.685880,0.001030
834.867700,1.685800,0.001030
835.968200,1.685730,0.001020
837.068800,1.685660,0.001020
838.169300,1.685590,0.001020
839.269840,1.685520,0.001020
840.370400,1.685450,0.001020
841.470950,1.685380,0.001010
842.571530,1.685310,0.001010
843.672060,1.685240,0.001010
844.772600,1.685170,0.001010
845.873170,1.685100,0.001000
846.973700,1.685030,0.001000
848.074300,1.684960,0.001000
849.174800,1.684890,0.001000
850.275300,1.684830,0.001000
851.375900,1.684760,0.000990
852.476440,1.684690,0.000990
853.577000,1.684630,0.000990
854.677550,1.684560,0.000990
855.778140,1.684490,0.000990
856.878660,1.684430,0.000980
857.979200,1.684360,0.000980
859.079800,1.684300,0.000980
860.180300,1.684230,0.000980
861.280900,1.684170,0.000980
862.381400,1.684100,0.000970
863.481930,1.684040,0.000970
864.582500,1.683970,0.000970
865.683040,1.683910,0.000970
866.783600,1.683850,0.000970
867.884160,1.683780,0.000960
868.984700,1.683720,0.000960
870.085270,1.683660,0.000960
871.185800,1.683590,0.000960
872.286400,1.683530,0.000960
873.386900,1.683470,0.000960
874.487500,1.683410,0.000950
875.588000,1.683350,0.000950
876.688600,1.683290,0.000950
877.789100,1.683230,0.000950
878.889650,1.683160,0.000950
879.990230,1.683100,0.000940
881.090760,1.683040,0.000940
882.191350,1.682980,0.000940
883.291900,1.682930,0.000940
884.392400,1.682870,0.000940
885.493000,1.682810,0.000940
886.593500,1.682750,0.000930
887.694100,1.682690,0.000930
888.794600,1.682630,0.000930
889.895140,1.682570,0.000930
890.995700,1.682520,0.000930
892.096250,1.682460,0.000920
893.196840,1.682400,0.000920
894.297360,1.682340,0.000920
895.397950,1.682290,0.000920
896.498500,1.682230,0.000920
897.599000,1.682170,0.000920
898.699600,1.682120,0.000910
899.800100,1.682060,0.000910
900.900700,1.682010,0.000910
902.001200,1.681950,0.000910
903.101750,1.681900,0.000910
904.202330,1.681840,0.000910
905.302860,1.681790,0.000900
906.403440,1.681730,0.000900
907.503970,1.681680,0.000900
908.604500,1.681620,0.000900
909.705100,1.681570,0.000900
910.805600,1.681510,0.000900
911.906200,1.681460,0.000890
913.006700,1.681410,0.000890
914.107300,1.681360,0.000890
915.207800,1.681300,0.000890
916.308350,1.681250,0.000890
917.408940,1.681200,0.000890
918.509460,1.681150,0.000880
919.610050,1.681090,0.000880
920.710600,1.681040,0.000880
921.811100,1.680990,0.000880
922.911700,1.680940,0.000880
924.012200,1.680890,0.000880
925.112800,1.680840,0.000880
926.213300,1.680790,0.000870
927.313840,1.680740,0.000870
928.414400,1.680680,0.000870
929.514950,1.680630,0.000870
930.615540,1.680580,0.000870
931.716060,1.680540,0.000870
932.816650,1.680490,0.000860
933.917200,1.680440,0.000860
935.017700,1.680390,0.000860
936.118300,1.680340,0.000860
937.218800,1.680290,0.000860
938.319400,1.680240,0.000860
939.419900,1.680190,0.000860
940.520450,1.680140,0.000850
941.621030,1.680100,0.000850
942.721560,1.680050,0.000850
943.822140,1.680000,0.000850
944.922670,1.679950,0.000850
946.023200,1.679910,0.000850
947.123800,1.679860,0.000850
948.224300,1.679810,0.000840
949.324900,1.679770,0.000840
950.425400,1.679720,0.000840
951.525940,1.679670,0.000840
952.626500,1.679630,0.000840
953.727050,1.679580,0.000840
954.827640,1.679530,0.000840
955.928160,1.679490,0.000830
957.028750,1.679440,0.000830
958.129300,1.679400,0.000830
959.229800,1.679350,0.000830
960.330400,1.679310,0.000830
961.430900,1.679260,0.000830
962.531500,1.679220,0.000830
963.632000,1.679170,0.000820
964.732600,1.679130,0.000820
965.833100,1.679090,0.000820
966.933650,1.679040,0.000820
968.034240,1.679000,0.000820
969.134770,1.678950,0.000820
970.235350,1.678910,0.000820
971.335900,1.678870,0.000820
972.436400,1.678820,0.000810
973.537000,1.678780,0.000810
974.637500,1.678740,0.000810
975.738100,1.678700,0.000810
976.838600,1.678650,0.000810
977.939200,1.678610,0.000810
979.039730,1.678570,0.000810
980.140260,1.678530,0.000810
981.240840,1.678480,0.000800
982.341400,1.678440,0.000800
983.441960,1.678400,0.000800
984.542500,1.678360,0.000800
985.643000,1.678320,0.000800
986.743600,1.678280,0.000800
987.844100,1.678240,0.000800
988.944700,1.678200,0.000790
990.045200,1.678160,0.000790
991.145750,1.678110,0.000790
992.246340,1.678070,0.000790
993.346860,1.678030,0.000790
994.447450,1.677990,0.000790
995.548000,1.677950,0.000790
996.648560,1.677910,0.000790
997.749100,1.677870,0.000790
998.849600,1.677840,0.000780
999.950200,1.677800,0.000780
1001.050700,1.677760,0.000780
1002.151300,1.677720,0.000780
1003.251830,1.677680,0.000780
1004.352360,1.677640,0.000780
1005.452940,1.677600,0.000780
1006.553470,1.677560,0.000780
1007.654050,1.677520,0.000770
1008.754600,1.677490,0.000770
1009.855100,1.677450,0.000770
1010.955700,1.677410,0.000770
1012.056200,1.677370,0.000770
1013.156800,1.677330,0.000770
1014.257300,1.677300,0.000770
1015.357900,1.677260,0.000770
1016.458440,1.677220,0.000760
1017.558960,1.677190,0.000760
1018.659550,1.677150,0.000760
1019.760100,1.677110,0.000760
1020.860660,1.677070,0.000760
1021.961200,1.677040,0.000760
1023.061700,1.677000,0.000760
1024.162200,1.676970,0.000760
1025.262800,1.676930,0.000760
1026.363400,1.676890,0.000750
1027.464000,1.676860,0.000750
1028.564500,1.676820,0.000750
1029.665000,1.676790,0.000750
1030.765600,1.676750,0.000750
1031.866100,1.676710,0.000750
1032.966700,1.676680,0.000750
1034.067300,1.676640,0.000750
1035.167700,1.676610,0.000750
1036.268300,1.676570,0.000740
1037.368900,1.676540,0.000740
1038.469500,1.676500,0.000740
1039.570000,1.676470,0.000740
1040.670500,1.676430,0.000740
1041.771100,1.676400,0.000740
1042.871600,1.676370,0.000740
1043.972200,1.676330,0.000740
1045.072800,1.676300,0.000740
1046.173300,1.676260,0.000740
1047.273800,1.676230,0.000730
1048.374400,1.676200,0.000730
1049.475000,1.676160,0.000730
1050.575400,1.676130,0.000730
1051.676000,1.676100,0.000730
1052.776600,1.676060,0.000730
1053.877200,1.676030,0.000730
1054.977700,1.676000,0.000730
1056.078200,1.675960,0.000730
1057.178800,1.675930,0.000720
1058.279300,1.675900,0.000720
1059.379900,1.675870,0.000720
1060.480500,1.675830,0.000720
1061.580900,1.675800,0.000720
1062.681500,1.675770,0.000720
1063.782100,1.675740,0.000720
1064.882700,1.675700,0.000720
1065.983200,1.675670,0.000720
1067.083700,1.675640,0.000720
1068.184300,1.675610,0.000710
1069.284800,1.675580,0.000710
1070.385400,1.675550,0.000710
1071.486000,1.675520,0.000710
1072.586500,1.675480,0.000710
1073.687000,1.675450,0.000710
1074.787600,1.675420,0.000710
1075.888200,1.675390,0.000710
1076.988600,1.675360,0.000710
1078.089200,1.675330,0.000710
1079.189800,1.675300,0.000700
1080.290300,1.675270,0.000700
1081.390900,1.675240,0.000700
1082.491500,1.675210,0.000700
1083.592000,1.675180,0.000700
1084.692500,1.675150,0.000700
1085.793100,1.675120,0.000700
1086.893700,1.675090,0.000700
1087.994100,1.675060,0.000700
1089.094700,1.675030,0.000700
1090.195300,1.675000,0.000700
1091.295900,1.674970,0.000690
1092.396400,1.674940,0.000690
1093.497000,1.674910,0.000690
1094.597500,1.674880,0.000690
1095.698000,1.674850,0.000690
1096.798600,1.674820,0.000690
1097.899200,1.674790,0.000690
1098.999600,1.674760,0.000690
1100.100200,1.674730,0.000690
1101.200800,1.674710,0.000690
1102.301400,1.674680,0.000690
1103.401900,1.674650,0.000680
1104.502400,1.674620,0.000680
1105.603000,1.674590,0.000680
1106.703500,1.674560,0.000680
1107.804100,1.674540,0.000680
1108.904700,1.674510,0.000680
1110.005200,1.674480,0.000680
1111.105700,1.674450,0.000680
1112.206300,1.674420,0.000680
1113.306900,1.674400,0.000680
1114.407300,1.674370,0.000680
1115.507900,1.674340,0.000670
1116.608500,1.674310,0.000670
1117.709000,1.674290,0.000670
1118.809600,1.674260,0.000670
1119.910200,1.674230,0.000670
1121.010700,1.674200,0.000670
1122.111200,1.674180,0.000670
1123.211800,1.674150,0.000670
1124.312400,1.674120,0.000670
1125.412800,1.674100,0.000670
1126.513400,1.674070,0.000670
1127.614000,1.674040,0.000670
1128.714600,1.674020,0.000660
1129.815100,1.673990,0.000660
1130.915600,1.673960,0.000660
1132.016200,1.673940,0.000660
1133.116700,1.673910,0.000660
1134.217300,1.673890,0.000660
1135.317900,1.673860,0.000660
1136.418500,1.673830,0.000660
1137.518900,1.673810,0.000660
1138.619500,1.673780,0.000660
1139.720100,1.673760,0.000660
1140.820600,1.673730,0.000660
1141.921100,1.673710,0.000650
1143.021700,1.673680,0.000650
1144.122200,1.673660,0.000650
1145.222800,1.673630,0.000650
1146.323400,1.673600,0.000650
1147.424000,1.673580,0.000650
1148.524400,1.673550,0.000650
1149.625000,1.673530,0.000650
1150.725600,1.673500,0.000650
1151.826000,1.673480,0.000650
1152.926600,1.673450,0.000650
1154.027200,1.673430,0.000650
1155.127800,1.673410,0.000640
1156.228300,1.673380,0.000640
1157.328900,1.673360,0.000640
1158.429400,1.673330,0.000640
1159.529900,1.673310,0.000640
1160.630500,1.673280,0.000640
1161.731100,1.673260,0.000640
1162.831500,1.673240,0.000640
1163.932100,1.673210,0.000640
1165.032700,1.673190,0.000640
1166.133300,1.673160,0.000640
1167.233800,1.673140,0.000640
1168.334400,1.673120,0.000640
1169.434900,1.673090,0.000630
1170.535400,1.673070,0.000630
1171.636000,1.673050,0.000630
1172.736600,1.673020,0.000630
1173.837200,1.673000,0.000630
1174.937600,1.672980,0.000630
1176.038200,1.672950,0.000630
1177.138800,1.672930,0.000630
1178.239300,1.672910,0.000630
1179.339800,1.672880,0.000630
1180.440400,1.672860,0.000630
1181.540900,1.672840,0.000630
1182.641500,1.672810,0.000630
1183.742100,1.672790,0.000620
1184.842700,1.672770,0.000620
1185.943100,1.672750,0.000620
1187.043700,1.672720,0.000620
1188.144300,1.672700,0.000620
1189.244800,1.672680,0.000620
1190.345300,1.672660,0.000620
1191.445900,1.672630,0.000620
1192.546500,1.672610,0.000620
1193.647000,1.672590,0.000620
1194.747600,1.672570,0.000620
1195.848100,1.672550,0.000620
1196.948600,1.672520,0.000620
1198.049200,1.672500,0.000620
1199.149800,1.672480,0.000610
1200.250200,1.672460,0.000610
1201.350800,1.672440,0.000610
1202.451400,1.672420,0.000610
1203.552000,1.672390,0.000610
1204.652500,1.672370,0.000610
1205.753000,1.672350,0.000610
1206.853600,1.672330,0.000610
1207.954100,1.672310,0.000610
1209.054700,1.672290,0.000610
1210.155300,1.672270,0.000610
1211.255900,1.672240,0.000610
1212.356300,1.672220,0.000610
1213.456900,1.672200,0.000610
1214.557500,1.672180,0.000600
1215.658000,1.672160,0.000600
1216.758500,1.672140,0.000600
1217.859100,1.672120,0.000600
1218.959600,1.672100,0.000600
1220.060200,1.672080,0.000600
1221.160800,1.672060,0.000600
1222.261400,1.672040,0.000600
1223.361800,1.672020,0.000600
1224.462400,1.672000,0.000600
1225.563000,1.671980,0.000600
1226.663500,1.671950,0.000600
1227.764000,1.671930,0.000600
1228.864600,1.671910,0.000600
1229.965200,1.671890,0.000600
1231.065700,1.671870,0.000590
1232.166300,1.671850,0.000590
1233.266800,1.671830,0.000590
1234.367300,1.671810,0.000590
1235.467900,1.671790,0.000590
1236.568500,1.671770,0.000590
1237.669100,1.671760,0.000590
1238.769500,1.671740,0.000590
1239.870100,1.671720,0.000590
1240.970700,1.671700,0.000590
1242.071200,1.671680,0.000590
1243.171800,1.671660,0.000590
1244.272300,1.671640,0.000590
1245.372800,1.671620,0.000590
1246.473400,1.671600,0.000590
1247.574000,1.671580,0.000580
1248.674600,1.671560,0.000580
1249.775000,1.671540,0.000580
1250.875600,1.671520,0.000580
1251.976200,1.671500,0.000580
1253.076700,1.671480,0.000580
1254.177200,1.671470,0.000580
1255.277800,1.671450,0.000580
1256.378400,1.671430,0.000580
1257.478900,1.671410,0.000580
1258.579500,1.671390,0.000580
1259.680000,1.671370,0.000580
1260.780500,1.671350,0.000580
1261.881100,1.671330,0.000580
1262.981700,1.671320,0.000580
1264.082200,1.671300,0.000580
1265.182700,1.671280,0.000570
1266.283300,1.671260,0.000570
1267.383900,1.671240,0.000570
1268.484400,1.671220,0.000570
1269.585000,1.671210,0.000570
1270.685500,1.671190,0.000570
1271.786000,1.671170,0.000570
1272.886600,1.671150,0.000570
1273.987200,1.671130,0.000570
1275.087800,1.671120,0.000570
1276.188200,1.671100,0.000570
1277.288800,1.671080,0.000570
1278.389400,1.671060,0.000570
1279.489900,1.671050,0.000570
1280.590500,1.671030,0.000570
1281.691000,1.671010,0.000570
1282.791500,1.670990,0.000560
1283.892100,1.670970,0.000560
1284.992700,1.670960,0.000560
1286.093300,1.670940,0.000560
1287.193700,1.670920,0.000560
1288.294300,1.670900,0.000560
1289.394900,1.670890,0.000560
1290.495400,1.670870,0.000560
1291.596000,1.670850,0.000560
1292.696500,1.670840,0.000560
1293.797100,1.670820,0.000560
1294.897600,1.670800,0.000560
1295.998200,1.670780,0.000560
1297.098800,1.670770,0.000560
1298.199200,1.670750,0.000560
1299.299800,1.670730,0.000560
1300.400400,1.670720,0.000560
1301.500900,1.670700,0.000560
1302.601400,1.670680,0.000550
1303.702000,1.670670,0.000550
1304.802600,1.670650,0.000550
1305.903100,1.670630,0.000550
1307.003700,1.670620,0.000550
1308.104200,1.670600,0.000550
1309.204700,1.670580,0.000550
1310.305300,1.670570,0.000550
1311.405900,1.670550,0.000550
1312.506500,1.670530,0.000550
1313.606900,1.670520,0.000550
1314.707500,1.670500,0.000550
1315.808100,1.670490,0.000550
1316.908600,1.670470,0.000550
1318.009200,1.670450,0.000550
1319.109700,1.670440,0.000550
1320.210300,1.670420,0.000550
1321.310800,1.670400,0.000540
1322.411400,1.670390,0.000540
1323.512000,1.670370,0.000540
1324.612400,1.670360,0.000540
1325.713000,1.670340,0.000540
1326.813600,1.670330,0.000540
1327.914100,1.670310,0.000540
1329.014600,1.670290,0.000540
1330.115200,1.670280,0.000540
1331.215800,1.670260,0.000540
1332.316300,1.670250,0.000540
1333.416900,1.670230,0.000540
1334.517500,1.670220,0.000540
1335.617900,1.670200,0.000540
1336.718500,1.670180,0.000540
1337.819100,1.670170,0.000540
1338.919700,1.670150,0.000540
1340.020100,1.670140,0.000540
1341.120700,1.670120,0.000540
1342.221300,1.670110,0.000530
1343.321800,1.670090,0.000530
1344.422400,1.670080,0.000530
1345.523000,1.670060,0.000530
1346.623400,1.670050,0.000530
1347.724000,1.670030,0.000530
1348.824600,1.670020,0.000530
1349.925200,1.670000,0.000530
1351.025600,1.669990,0.000530
1352.126200,1.669970,0.000530
1353.226800,1.669960,0.000530
1354.327300,1.669940,0.000530
1355.427900,1.669930,0.000530
1356.528400,1.669910,0.000530
1357.629000,1.669900,0.000530
1358.729500,1.669880,0.000530
1359.830100,1.669870,0.000530
1360.930700,1.669850,0.000530
1362.031100,1.669840,0.000530
1363.131700,1.669830,0.000520
1364.232300,1.669810,0.000520
1365.332800,1.669800,0.000520
1366.433300,1.669780,0.000520
1367.533900,1.669770,0.000520
1368.634500,1.669750,0.000520
1369.735000,1.669740,0.000520
1370.835600,1.669730,0.000520
1371.936200,1.669710,0.000520
1373.036600,1.669700,0.000520
1374.137200,1.669680,0.000520
1375.237800,1.669670,0.000520
1376.338400,1.669650,0.000520
1377.438800,1.669640,0.000520
1378.539400,1.669630,0.000520
1379.640000,1.669610,0.000520
1380.740500,1.669600,0.000520
1381.841100,1.669580,0.000520
1382.941700,1.669570,0.000520
1384.042100,1.669560,0.000520
1385.142700,1.669540,0.000510
1386.243300,1.669530,0.000510
1387.343900,1.669520,0.000510
1388.444300,1.669500,0.000510
1389.544900,1.669490,0.000510
1390.645500,1.669470,0.000510
1391.746000,1.669460,0.000510
1392.846600,1.669450,0.000510
1393.947100,1.669430,0.000510
1395.047700,1.669420,0.000510
1396.148200,1.669410,0.000510
1397.248800,1.669390,0.000510
1398.349400,1.669380,0.000510
1399.449800,1.669370,0.000510
1400.550400,1.669350,0.000510
1401.651000,1.669340,0.000510
1402.751600,1.669330,0.000510
1403.852000,1.669310,0.000510
1404.952600,1.669300,0.000510
1406.053200,1.669290,0.000510
1407.153700,1.669270,0.000510
1408.254300,1.669260,0.000500
1409.354900,1.669250,0.000500
1410.455300,1.669230,0.000500
1411.555900,1.669220,0.000500
1412.656500,1.669210,0.000500
1413.757100,1.669200,0.000500
1414.857500,1.669180,0.000500
1415.958100,1.669170,0.000500
1417.058700,1.669160,0.000500
1418.159200,1.669140,0.000500
1419.259800,1.669130,0.000500
1420.360400,1.669120,0.000500
1421.460900,1.669110,0.000500
1422.561400,1.669090,0.000500
1423.662000,1.669080,0.000500
1424.762600,1.669070,0.000500
1425.863000,1.669060,0.000500
1426.963600,1.669040,0.000500
1428.064200,1.669030,0.000500
1429.164700,1.669020,0.000500
1430.265300,1.669010,0.000500
1431.365800,1.668990,0.000500
1432.466400,1.668980,0.000490
1433.566900,1.668970,0.000490
1434.667500,1.668960,0.000490
1435.768100,1.668940,0.000490
1436.868500,1.668930,0.000490
1437.969100,1.668920,0.000490
1439.069700,1.668910,0.000490
1440.170300,1.668890,0.000490
1441.270800,1.668880,0.000490
1442.371300,1.668870,0.000490
1443.471900,1.668860,0.000490
1444.572400,1.668850,0.000490
1445.673000,1.668830,0.000490
1446.773600,1.668820,0.000490
1447.874000,1.668810,0.000490
1448.974600,1.668800,0.000490
1450.075200,1.668790,0.000490
1451.175800,1.668770,0.000490
1452.276200,1.668760,0.000490
1453.376800,1.668750,0.000490
1454.477400,1.668740,0.000490
1455.577900,1.668730,0.000490
1456.678500,1.668710,0.000490
1457.779000,1.668700,0.000480
1458.879600,1.668690,0.000480
1459.980100,1.668680,0.000480
1461.080700,1.668670,0.000480
1462.181300,1.668660,0.000480
1463.281700,1.668640,0.000480
1464.382300,1.668630,0.000480
1465.482900,1.668620,0.000480
1466.583400,1.668610,0.000480
1467.684000,1.668600,0.000480
1468.784500,1.668590,0.000480
1469.885100,1.668570,0.000480
1470.985600,1.668560,0.000480
1472.086200,1.668550,0.000480
1473.186800,1.668540,0.000480
1474.287200,1.668530,0.000480
1475.387800,1.668520,0.000480
1476.488400,1.668510,0.000480
1477.589000,1.668500,0.000480
1478.689500,1.668480,0.000480
1479.790000,1.668470,0.000480
1480.890600,1.668460,0.000480
1481.991100,1.668450,0.000480
1483.091700,1.668440,0.000480
1484.192300,1.668430,0.000470
1485.292700,1.668420,0.000470
1486.393300,1.668410,0.000470
1487.493900,1.668390,0.000470
1488.594500,1.668380,0.000470
1489.695000,1.668370,0.000470
1490.795500,1.668360,0.000470
1491.896100,1.668350,0.000470
1492.996600,1.668340,0.000470
1494.097200,1.668330,0.000470
1495.197800,1.668320,0.000470
1496.298300,1.668310,0.000470
1497.398800,1.668300,0.000470
1498.499400,1.668290,0.000470
1499.600000,1.668280,0.000470
1500.700400,1.668260,0.000470
1501.801000,1.668250,0.000470
1502.901600,1.668240,0.000470
1504.002200,1.668230,0.000470
1505.102700,1.668220,0.000470
1506.203200,1.668210,0.000470
1507.303800,1.668200,0.000470
1508.404300,1.668190,0.000470
1509.504900,1.668180,0.000470
1510.605500,1.668170,0.000470
1511.705900,1.668160,0.000460
1512.806500,1.668150,0.000460
1513.907100,1.668140,0.000460
1515.007700,1.668130,0.000460
1516.108200,1.668120,0.000460
1517.208700,1.668110,0.000460
1518.309300,1.668100,0.000460
1519.409800,1.668090,0.000460
1520.510400,1.668080,0.000460
1521.611000,1.668060,0.000460
1522.711500,1.668050,0.000460
1523.812000,1.668040,0.000460
1524.912600,1.668030,0.000460
1526.013200,1.668020,0.000460
1527.113600,1.668010,0.000460
1528.214200,1.668000,0.000460
1529.314800,1.667990,0.000460
1530.415300,1.667980,0.000460
1531.515900,1.667970,0.000460
1532.616500,1.667960,0.000460
1533.717000,1.667950,0.000460
1534.817500,1.667940,0.000460
1535.918100,1.667930,0.000460
1537.018700,1.667920,0.000460
1538.119100,1.667910,0.000460
1539.219700,1.667900,0.000460
1540.320300,1.667890,0.000460
1541.420900,1.667880,0.000450
1542.521400,1.667870,0.000450
1543.622000,1.667860,0.000450
1544.722500,1.667850,0.000450
1545.823000,1.667840,0.000450
1546.923600,1.667830,0.000450
1548.024200,1.667820,0.000450
1549.124600,1.667810,0.000450
1550.225200,1.667810,0.000450
1551.325800,1.667800,0.000450
1552.426400,1.667790,0.000450
1553.526900,1.667780,0.000450
1554.627400,1.667770,0.000450
1555.728000,1.667760,0.000450
1556.828500,1.667750,0.000450
1557.929100,1.667740,0.000450
1559.029700,1.667730,0.000450
1560.130200,1.667720,0.000450
1561.230700,1.667710,0.000450
1562.331300,1.667700,0.000450
1563.431900,1.667690,0.000450
1564.532300,1.667680,0.000450
1565.632900,1.667670,0.000450
1566.733500,1.667660,0.000450
1567.834000,1.667650,0.000450
1568.934600,1.667640,0.000450
1570.035200,1.667630,0.000450
1571.135700,1.667620,0.000440
1572.236200,1.667620,0.000440
1573.336800,1.667610,0.000440
1574.437400,1.667600,0.000440
1575.537800,1.667590,0.000440
1576.638400,1.667580,0.000440
1577.739000,1.667570,0.000440
1578.839600,1.667560,0.000440
1579.940100,1.667550,0.000440
1581.040600,1.667540,0.000440
1582.141200,1.667530,0.000440
1583.241700,1.667520,0.000440
1584.342300,1.667510,0.000440
1585.442900,1.667510,0.000440
1586.543500,1.667500,0.000440
1587.643900,1.667490,0.000440
1588.744500,1.667480,0.000440
1589.845100,1.667470,0.000440
1590.945600,1.667460,0.000440
1592.046100,1.667450,0.000440
1593.146700,1.667440,0.000440
1594.247200,1.667430,0.000440
1595.347800,1.667420,0.000440
1596.448400,1.667420,0.000440
1597.549000,1.667410,0.000440
1598.649400,1.667400,0.000440
1599.750000,1.667390,0.000440
1600.850600,1.667380,0.000440
1601.951000,1.667370,0.000440
1603.051600,1.667360,0.000430
1604.152200,1.667350,0.000430
1605.252800,1.667350,0.000430
1606.353300,1.667340,0.000430
1607.453900,1.667330,0.000430
1608.554400,1.667320,0.000430
1609.654900,1.667310,0.000430
1610.755500,1.667300,0.000430
1611.856100,1.667290,0.000430
1612.956500,1.667290,0.000430
1614.057100,1.667280,0.000430
1615.157700,1.667270,0.000430
1616.258300,1.667260,0.000430
1617.358800,1.667250,0.000430
1618.459400,1.667240,0.000430
1619.559900,1.667230,0.000430
1620.660400,1.667230,0.000430
1621.761000,1.667220,0.000430
1622.861600,1.667210,0.000430
1623.962200,1.667200,0.000430
1625.062600,1.667190,0.000430
1626.163200,1.667180,0.000430
1627.263800,1.667180,0.000430
1628.364300,1.667170,0.000430
1629.464800,1.667160,0.000430
1630.565400,1.667150,0.000430
1631.665900,1.667140,0.000430
1632.766500,1.667130,0.000430
1633.867100,1.667130,0.000430
1634.967700,1.667120,0.000430
1636.068100,1.667110,0.000430
1637.168700,1.667100,0.000420
1638.269300,1.667090,0.000420
1639.369800,1.667080,0.000420
1640.470300,1.667080,0.000420
1641.570900,1.667070,0.000420
1642.671500,1.667060,0.000420
1643.772000,1.667050,0.000420
1644.872600,1.667040,0.000420
1645.973100,1.667040,0.000420
1647.073600,1.667030,0.000420
1648.174200,1.667020,0.000420
1649.274800,1.667010,0.000420
1650.375200,1.667000,0.000420
1651.475800,1.667000,0.000420
1652.576400,1.666990,0.000420
1653.677000,1.666980,0.000420
1654.777500,1.666970,0.000420
1655.878000,1.666960,0.000420
1656.978600,1.666960,0.000420
1658.079100,1.666950,0.000420
1659.179700,1.666940,0.000420
1660.280300,1.666930,0.000420
1661.380900,1.666920,0.000420
1662.481300,1.666920,0.000420
1663.581900,1.666910,0.000420
1664.682500,1.666900,0.000420
1665.783000,1.666890,0.000420
1666.883500,1.666890,0.000420
1667.984100,1.666880,0.000420
1669.084700,1.666870,0.000420
1670.185200,1.666860,0.000420
1671.285800,1.666860,0.000420
1672.386400,1.666850,0.000410
1673.486800,1.666840,0.000410
1674.587400,1.666830,0.000410
1675.688000,1.666820,0.000410
1676.788500,1.666820,0.000410
1677.889000,1.666810,0.000410
1678.989600,1.666800,0.000410
1680.090200,1.666790,0.000410
1681.190700,1.666790,0.000410
1682.291300,1.666780,0.000410
1683.391800,1.666770,0.000410
1684.492300,1.666760,0.000410
1685.592900,1.666760,0.000410
1686.693500,1.666750,0.000410
1687.794100,1.666740,0.000410
1688.894500,1.666730,0.000410
1689.995100,1.666730,0.000410
1691.095700,1.666720,0.000410
1692.196200,1.666710,0.000410
1693.296800,1.666700,0.000410
1694.397300,1.666700,0.000410
1695.497800,1.666690,0.000410
1696.598400,1.666680,0.000410
1697.699000,1.666680,0.000410
1698.799600,1.666670,0.000410
1699.900000,1.666660,0.000410
1701.000600,1.666650,0.000410
1702.101200,1.666650,0.000410
1703.201700,1.666640,0.000410
1704.302200,1.666630,0.000410
1705.402800,1.666620,0.000410
1706.503400,1.666620,0.000410
1707.603900,1.666610,0.000410
1708.704500,1.666600,0.000410
1709.805000,1.666600,0.000400
1710.905500,1.666590,0.000400
1712.006100,1.666580,0.000400
1713.106700,1.666570,0.000400
1714.207200,1.666570,0.000400
1715.307700,1.666560,0.000400
1716.408300,1.666550,0.000400
1717.508900,1.666550,0.000400
1718.609400,1.666540,0.000400
1719.710000,1.666530,0.000400
1720.810500,1.666520,0.000400
1721.911000,1.666520,0.000400
1723.011600,1.666510,0.000400
1724.112200,1.666500,0.000400
1725.212800,1.666500,0.000400
1726.313200,1.666490,0.000400
1727.413800,1.666480,0.000400
1728.514400,1.666480,0.000400
1729.614900,1.666470,0.000400
1730.715500,1.666460,0.000400
1731.816000,1.666460,0.000400
1732.916500,1.666450,0.000400
1734.017100,1.666440,0.000400
1735.117700,1.666430,0.000400
1736.218300,1.666430,0.000400
1737.318700,1.666420,0.000400
1738.419300,1.666410,0.000400
1739.519900,1.666410,0.000400
1740.620400,1.666400,0.000400
1741.721000,1.666390,0.000400
1742.821500,1.666390,0.000400
1743.922100,1.666380,0.000400
1745.022600,1.666370,0.000400
1746.123200,1.666370,0.000400
1747.223800,1.666360,0.000400
1748.324200,1.666350,0.000400
1749.424800,1.666350,0.000390
1750.525400,1.666340,0.000390
1751.625900,1.666330,0.000390
1752.726400,1.666330,0.000390
1753.827000,1.666320,0.000390
1754.927600,1.666310,0.000390
1756.028100,1.666310,0.000390
1757.128700,1.666300,0.000390
1758.229200,1.666290,0.000390
1759.329700,1.666290,0.000390
1760.430300,1.666280,0.000390
1761.530900,1.666270,0.000390
1762.631500,1.666270,0.000390
1763.731900,1.666260,0.000390
1764.832500,1.666250,0.000390
1765.933100,1.666250,0.000390
1767.033600,1.666240,0.000390
1768.134200,1.666240,0.000390
1769.234700,1.666230,0.000390
1770.335300,1.666220,0.000390
1771.435800,1.666220,0.000390
1772.536400,1.666210,0.000390
1773.637000,1.666200,0.000390
1774.737400,1.666200,0.000390
1775.838000,1.666190,0.000390
1776.938600,1.666180,0.000390
1778.039100,1.666180,0.000390
1779.139600,1.666170,0.000390
1780.240200,1.666170,0.000390
1781.340800,1.666160,0.000390
1782.441300,1.666150,0.000390
1783.541900,1.666150,0.000390
1784.642500,1.666140,0.000390
1785.742900,1.666130,0.000390
1786.843500,1.666130,0.000390
1787.944100,1.666120,0.000390
1789.044700,1.666120,0.000390
1790.145100,1.666110,0.000390
1791.245700,1.666100,0.000380
1792.346300,1.666100,0.000380
1793.446800,1.666090,0.000380
1794.547400,1.666080,0.000380
1795.648000,1.666080,0.000380
1796.748400,1.666070,0.000380
1797.849000,1.666070,0.000380
1798.949600,1.666060,0.000380
1800.050200,1.666050,0.000380
1801.150600,1.666050,0.000380
1802.251200,1.666040,0.000380
1803.351800,1.666040,0.000380
1804.452300,1.666030,0.000380
1805.552900,1.666020,0.000380
1806.653400,1.666020,0.000380
1807.754000,1.666010,0.000380
1808.854500,1.666000,0.000380
1809.955100,1.666000,0.000380
1811.055700,1.665990,0.000380
1812.156100,1.665990,0.000380
1813.256700,1.665980,0.000380
1814.357300,1.665970,0.000380
1815.457800,1.665970,0.000380
1816.558300,1.665960,0.000380
1817.658900,1.665960,0.000380
1818.759500,1.665950,0.000380
1819.860000,1.665950,0.000380
1820.960600,1.665940,0.000380
1822.061200,1.665930,0.000380
1823.161600,1.665930,0.000380
1824.262200,1.665920,0.000380
1825.362800,1.665920,0.000380
1826.463400,1.665910,0.000380
1827.563800,1.665900,0.000380
1828.664400,1.665900,0.000380
1829.765000,1.665890,0.000380
1830.865500,1.665890,0.000380
1831.966100,1.665880,0.000380
1833.066700,1.665880,0.000380
1834.167100,1.665870,0.000380
1835.267700,1.665860,0.000370
1836.368300,1.665860,0.000370
1837.468900,1.665850,0.000370
1838.569300,1.665850,0.000370
1839.669900,1.665840,0.000370
1840.770500,1.665840,0.000370
1841.871000,1.665830,0.000370
1842.971600,1.665820,0.000370
1844.072100,1.665820,0.000370
1845.172700,1.665810,0.000370
1846.273200,1.665810,0.000370
1847.373800,1.665800,0.000370
1848.474400,1.665800,0.000370
1849.574800,1.665790,0.000370
1850.675400,1.665780,0.000370
1851.776000,1.665780,0.000370
1852.876600,1.665770,0.000370
1853.977000,1.665770,0.000370
1855.077600,1.665760,0.000370
1856.178200,1.665760,0.000370
1857.278700,1.665750,0.000370
1858.379300,1.665750,0.000370
1859.479900,1.665740,0.000370
1860.580300,1.665730,0.000370
1861.680900,1.665730,0.000370
1862.781500,1.665720,0.000370
1863.882100,1.665720,0.000370
1864.982500,1.665710,0.000370
1866.083100,1.665710,0.000370
1867.183700,1.665700,0.000370
1868.284200,1.665700,0.000370
1869.384800,1.665690,0.000370
1870.485400,1.665680,0.000370
1871.585900,1.665680,0.000370
1872.686400,1.665670,0.000370
1873.787000,1.665670,0.000370
1874.887600,1.665660,0.000370
1875.988000,1.665660,0.000370
1877.088600,1.665650,0.000370
1878.189200,1.665650,0.000370
1879.289700,1.665640,0.000370
1880.390300,1.665640,0.000370
1881.490800,1.665630,0.000370
1882.591400,1.665630,0.000360
1883.691900,1.665620,0.000360
1884.792500,1.665620,0.000360
1885.893100,1.665610,0.000360
1886.993500,1.665600,0.000360
1888.094100,1.665600,0.000360
1889.194700,1.665590,0.000360
1890.295300,1.665590,0.000360
1891.395800,1.665580,0.000360
1892.496300,1.665580,0.000360
1893.596900,1.665570,0.000360
1894.697400,1.665570,0.000360
1895.798000,1.665560,0.000360
1896.898600,1.665560,0.000360
1897.999000,1.665550,0.000360
1899.099600,1.665550,0.000360
1900.200200,1.665540,0.000360
1901.300800,1.665540,0.000360
1902.401200,1.665530,0.000360
1903.501800,1.665530,0.000360
1904.602400,1.665520,0.000360
1905.702900,1.665520,0.000360
1906.803500,1.665510,0.000360
1907.904000,1.665510,0.000360
1909.004600,1.665500,0.000360
1910.105100,1.665500,0.000360
1911.205700,1.665490,0.000360
1912.306300,1.665490,0.000360
1913.406700,1.665480,0.000360
1914.507300,1.665480,0.000360
1915.607900,1.665470,0.000360
1916.708400,1.665470,0.000360
1917.809000,1.665460,0.000360
1918.909500,1.665460,0.000360
1920.010100,1.665450,0.000360
1921.110600,1.665450,0.000360
1922.211200,1.665440,0.000360
1923.311800,1.665440,0.000360
1924.412200,1.665430,0.000360
1925.512800,1.665430,0.000360
1926.613400,1.665420,0.000360
1927.714000,1.665420,0.000360
1928.814500,1.665410,0.000360
1929.915000,1.665410,0.000360
1931.015600,1.665400,0.000360
1932.116100,1.665400,0.000350
1933.216700,1.665390,0.000350
1934.317300,1.665390,0.000350
1935.417800,1.665380,0.000350
1936.518300,1.665380,0.000350
1937.618900,1.665370,0.000350
1938.719500,1.665370,0.000350
1939.820000,1.665360,0.000350
1940.920500,1.665360,0.000350
1942.021100,1.665350,0.000350
1943.121600,1.665350,0.000350
1944.222200,1.665340,0.000350
1945.322800,1.665340,0.000350
1946.423300,1.665330,0.000350
1947.523800,1.665330,0.000350
1948.624400,1.665320,0.000350
1949.725000,1.665320,0.000350
1950.825400,1.665310,0.000350
1951.926000,1.665310,0.000350
1953.026600,1.665300,0.000350
1954.127200,1.665300,0.000350
1955.227700,1.665290,0.000350
1956.328200,1.665290,0.000350
1957.428800,1.665280,0.000350
1958.529300,1.665280,0.000350
1959.629900,1.665280,0.000350
1960.730500,1.665270,0.000350
1961.830900,1.665270,0.000350
1962.931500,1.665260,0.000350
1964.032100,1.665260,0.000350
1965.132700,1.665250,0.000350
1966.233200,1.665250,0.000350
1967.333700,1.665240,0.000350
1968.434300,1.665240,0.000350
1969.534800,1.665230,0.000350
1970.635400,1.665230,0.000350
1971.736000,1.665220,0.000350
1972.836500,1.665220,0.000350
1973.937000,1.665210,0.000350
1975.037600,1.665210,0.000350
1976.138200,1.665210,0.000350
1977.238600,1.665200,0.000350
1978.339200,1.665200,0.000350
1979.439800,1.665190,0.000350
1980.540300,1.665190,0.000350
1981.640900,1.665180,0.000350
1982.741500,1.665180,0.000350
1983.842000,1.665170,0.000350
1984.942500,1.665170,0.000350
1986.043100,1.665160,0.000340
1987.143700,1.665160,0.000340
1988.244100,1.665160,0.000340
1989.344700,1.665150,0.000340
1990.445300,1.665150,0.000340
1991.545900,1.665140,0.000340
1992.646400,1.665140,0.000340
1993.747000,1.665130,0.000340
1994.847500,1.665130,0.000340
1995.948000,1.665120,0.000340
1997.048600,1.665120,0.000340
1998.149200,1.665120,0.000340
1999.249600,1.665110,0.000340
2000.350200,1.665110,0.000340
2001.450800,1.665100,0.000340
2002.551400,1.665100,0.000340
2003.651900,1.665090,0.000340
2004.752400,1.665090,0.000340
2005.853000,1.665080,0.000340
2006.953500,1.665080,0.000340
2008.054100,1.665080,0.000340
2009.154700,1.665070,0.000340
2010.255200,1.665070,0.000340
2011.355700,1.665060,0.000340
2012.456300,1.665060,0.000340
2013.556900,1.665050,0.000340
2014.657300,1.665050,0.000340
2015.757900,1.665050,0.000340
2016.858500,1.665040,0.000340
2017.959100,1.665040,0.000340
2019.059600,1.665030,0.000340
2020.160200,1.665030,0.000340
2021.260700,1.665020,0.000340
2022.361200,1.665020,0.000340
2023.461800,1.665020,0.000340
2024.562400,1.665010,0.000340
2025.662800,1.665010,0.000340
2026.763400,1.665000,0.000340
2027.864000,1.665000,0.000340
2028.964600,1.664990,0.000340
2030.065100,1.664990,0.000340
2031.165600,1.664990,0.000340
2032.266200,1.664980,0.000340
2033.366700,1.664980,0.000340
2034.467300,1.664970,0.000340
2035.567900,1.664970,0.000340
2036.668500,1.664960,0.000340
2037.768900,1.664960,0.000340
2038.869500,1.664960,0.000340
2039.970100,1.664950,0.000340
2041.070600,1.664950,0.000340
2042.171100,1.664940,0.000340
2043.271700,1.664940,0.000330
2044.372200,1.664940,0.000330
2045.472800,1.664930,0.000330
2046.573400,1.664930,0.000330
2047.674000,1.664920,0.000330
2048.774400,1.664920,0.000330
2049.875000,1.664920,0.000330
2050.975600,1.664910,0.000330
2052.076200,1.664910,0.000330
2053.176800,1.664900,0.000330
2054.277000,1.664900,0.000330
2055.377700,1.664890,0.000330
2056.478300,1.664890,0.000330
2057.578900,1.664890,0.000330
2058.679400,1.664880,0.000330
2059.780000,1.664880,0.000330
2060.880600,1.664870,0.000330
2061.981000,1.664870,0.000330
2063.081500,1.664870,0.000330
2064.182100,1.664860,0.000330
2065.282700,1.664860,0.000330
2066.383300,1.664850,0.000330
2067.484000,1.664850,0.000330
2068.584200,1.664850,0.000330
2069.684800,1.664840,0.000330
2070.785400,1.664840,0.000330
2071.886000,1.664830,0.000330
2072.986600,1.664830,0.000330
2074.087200,1.664830,0.000330
2075.187700,1.664820,0.000330
2076.288000,1.664820,0.000330
2077.388700,1.664810,0.000330
2078.489300,1.664810,0.000330
2079.589800,1.664810,0.000330
2080.690400,1.664800,0.000330
2081.791000,1.664800,0.000330
2082.891600,1.664800,0.000330
2083.992000,1.664790,0.000330
2085.092500,1.664790,0.000330
2086.193000,1.664780,0.000330
2087.293700,1.664780,0.000330
2088.394300,1.664780,0.000330
2089.494900,1.664770,0.000330
2090.595500,1.664770,0.000330
2091.695800,1.664760,0.000330
2092.796400,1.664760,0.000330
2093.897000,1.664760,0.000330
2094.997600,1.664750,0.000330
2096.098100,1.664750,0.000330
2097.198700,1.664750,0.000330
2098.299300,1.664740,0.000330
2099.399700,1.664740,0.000330
2100.500200,1.664730,0.000330
2101.600800,1.664730,0.000330
2102.701400,1.664730,0.000330
2103.802000,1.664720,0.000320
2104.902600,1.664720,0.000320
2106.003200,1.664710,0.000320
2107.103500,1.664710,0.000320
2108.204000,1.664710,0.000320
2109.304700,1.664700,0.000320
2110.405300,1.664700,0.000320
2111.505900,1.664700,0.000320
2112.606400,1.664690,0.000320
2113.707000,1.664690,0.000320
2114.807400,1.664680,0.000320
2115.908000,1.664680,0.000320
2117.008500,1.664680,0.000320
2118.109100,1.664670,0.000320
2119.209700,1.664670,0.000320
2120.310300,1.664670,0.000320
2121.410600,1.664660,0.000320
2122.511200,1.664660,0.000320
2123.611800,1.664650,0.000320
2124.712400,1.664650,0.000320
2125.813000,1.664650,0.000320
2126.913600,1.664640,0.000320
2128.014200,1.664640,0.000320
2129.114500,1.664640,0.000320
2130.215000,1.664630,0.000320
2131.315700,1.664630,0.000320
2132.416300,1.664630,0.000320
2133.516800,1.664620,0.000320
2134.617400,1.664620,0.000320
2135.718000,1.664610,0.000320
2136.818400,1.664610,0.000320
2137.919000,1.664610,0.000320
2139.019500,1.664600,0.000320
2140.120000,1.664600,0.000320
2141.220700,1.664600,0.000320
2142.321300,1.664590,0.000320
2143.421900,1.664590,0.000320
2144.522200,1.664590,0.000320
2145.622800,1.664580,0.000320
2146.723400,1.664580,0.000320
2147.824000,1.664580,0.000320
2148.924600,1.664570,0.000320
2150.025100,1.664570,0.000320
2151.125500,1.664560,0.000320
2152.226000,1.664560,0.000320
2153.326700,1.664560,0.000320
2154.427200,1.664550,0.000320
2155.527800,1.664550,0.000320
2156.628400,1.664550,0.000320
2157.729000,1.664540,0.000320
2158.829300,1.664540,0.000320
2159.930000,1.664540,0.000320
2161.030500,1.664530,0.000320
2162.131000,1.664530,0.000320
2163.231700,1.664530,0.000320
2164.332300,1.664520,0.000320
2165.432900,1.664520,0.000320
2166.533200,1.664520,0.000320
2167.633800,1.664510,0.000320
2168.734400,1.664510,0.000320
2169.835000,1.664510,0.000310
2170.935500,1.664500,0.000310
2172.036100,1.664500,0.000310
2173.136700,1.664500,0.000310
2174.237000,1.664490,0.000310
2175.337600,1.664490,0.000310
2176.438200,1.664480,0.000310
2177.538800,1.664480,0.000310
2178.639400,1.664480,0.000310
2179.740000,1.664470,0.000310
2180.840600,1.664470,0.000310
2181.941000,1.664470,0.000310
2183.041500,1.664460,0.000310
2184.142000,1.664460,0.000310
2185.242700,1.664460,0.000310
2186.343300,1.664450,0.000310
2187.443800,1.664450,0.000310
2188.544200,1.664450,0.000310
2189.644800,1.664440,0.000310
2190.745400,1.664440,0.000310
2191.846000,1.664440,0.000310
2192.946500,1.664430,0.000310
2194.047000,1.664430,0.000310
2195.147700,1.664430,0.000310
2196.248300,1.664420,0.000310
2197.348600,1.664420,0.000310
2198.449200,1.664420,0.000310
2199.549800,1.664410,0.000310
2200.650400,1.664410,0.000310
2201.751000,1.664410,0.000310
2202.851600,1.664400,0.000310
2203.952000,1.664400,0.000310
2205.052500,1.664400,0.000310
2206.153000,1.664390,0.000310
2207.253700,1.664390,0.000310
2208.354200,1.664390,0.000310
2209.454800,1.664380,0.000310
2210.555400,1.664380,0.000310
2211.655800,1.664380,0.000310
2212.756300,1.664370,0.000310
2213.857000,1.664370,0.000310
2214.957500,1.664370,0.000310
2216.058000,1.664370,0.000310
2217.158700,1.664360,0.000310
2218.259300,1.664360,0.000310
2219.359600,1.664360,0.000310
2220.460200,1.664350,0.000310
2221.560800,1.664350,0.000310
2222.661400,1.664350,0.000310
2223.762000,1.664340,0.000310
2224.862500,1.664340,0.000310
2225.963100,1.664340,0.000310
2227.063500,1.664330,0.000310
2228.164000,1.664330,0.000310
2229.264600,1.664330,0.000310
2230.365200,1.664320,0.000310
2231.465800,1.664320,0.000310
2232.566400,1.664320,0.000310
2233.666700,1.664310,0.000310
2234.767300,1.664310,0.000310
2235.868000,1.664310,0.000310
2236.968500,1.664300,0.000310
2238.069000,1.664300,0.000310
2239.169700,1.664300,0.000310
2240.270300,1.664300,0.000310
2241.370600,1.664290,0.000300
2242.471200,1.664290,0.000300
2243.571800,1.664290,0.000300
2244.672400,1.664280,0.000300
2245.773000,1.664280,0.000300
2246.873500,1.664280,0.000300
2247.974000,1.664270,0.000300
2249.074500,1.664270,0.000300
2250.175000,1.664270,0.000300
2251.275600,1.664260,0.000300
2252.376200,1.664260,0.000300
2253.476800,1.664260,0.000300
2254.577400,1.664260,0.000300
2255.678000,1.664250,0.000300
2256.778300,1.664250,0.000300
2257.879000,1.664250,0.000300
2258.979500,1.664240,0.000300
2260.080000,1.664240,0.000300
2261.180700,1.664240,0.000300
2262.281200,1.664230,0.000300
2263.381800,1.664230,0.000300
2264.482200,1.664230,0.000300
2265.582800,1.664220,0.000300
2266.683300,1.664220,0.000300
2267.784000,1.664220,0.000300
2268.884500,1.664220,0.000300
2269.985000,1.664210,0.000300
2271.085400,1.664210,0.000300
2272.186000,1.664210,0.000300
2273.286600,1.664200,0.000300
2274.387200,1.664200,0.000300
2275.487800,1.664200,0.000300
2276.588400,1.664190,0.000300
2277.689000,1.664190,0.000300
2278.789300,1.664190,0.000300
2279.890000,1.664190,0.000300
2280.990500,1.664180,0.000300
2282.091000,1.664180,0.000300
2283.191700,1.664180,0.000300
2284.292200,1.664170,0.000300
2285.392800,1.664170,0.000300
2286.493200,1.664170,0.000300
2287.593800,1.664170,0.000300
2288.694300,1.664160,0.000300
2289.795000,1.664160,0.000300
2290.895500,1.664160,0.000300
2291.996000,1.664150,0.000300
2293.096700,1.664150,0.000300
2294.197000,1.664150,0.000300
2295.297600,1.664140,0.000300
2296.398200,1.664140,0.000300
2297.498800,1.664140,0.000300
2298.599400,1.664140,0.000300
2299.700000,1.664130,0.000300
2300.800500,1.664130,0.000300
2301.901000,1.664130,0.000300
2303.001500,1.664120,0.000300
2304.102000,1.664120,0.000300
2305.202600,1.664120,0.000300
2306.303200,1.664120,0.000300
2307.403800,1.664110,0.000300
2308.504400,1.664110,0.000300
2309.604700,1.664110,0.000300
2310.705300,1.664100,0.000300
2311.806000,1.664100,0.000300
2312.906500,1.664100,0.000300
2314.007000,1.664100,0.000300
2315.107700,1.664090,0.000300
2316.208300,1.664090,0.000300
2317.308600,1.664090,0.000300
2318.409200,1.664080,0.000290
2319.509800,1.664080,0.000290
2320.610400,1.664080,0.000290
2321.711000,1.664080,0.000290
2322.811500,1.664070,0.000290
2323.911900,1.664070,0.000290
2325.012500,1.664070,0.000290
2326.113000,1.664060,0.000290
2327.213600,1.664060,0.000290
2328.314200,1.664060,0.000290
2329.414800,1.664060,0.000290
2330.515400,1.664050,0.000290
2331.615700,1.664050,0.000290
2332.716300,1.664050,0.000290
2333.817000,1.664050,0.000290
2334.917500,1.664040,0.000290
2336.018000,1.664040,0.000290
2337.118700,1.664040,0.000290
2338.219200,1.664030,0.000290
2339.319600,1.664030,0.000290
2340.420200,1.664030,0.000290
2341.520800,1.664030,0.000290
2342.621300,1.664020,0.000290
2343.722000,1.664020,0.000290
2344.822500,1.664020,0.000290
2345.923000,1.664020,0.000290
2347.023400,1.664010,0.000290
2348.124000,1.664010,0.000290
2349.224600,1.664010,0.000290
2350.325200,1.664000,0.000290
2351.425800,1.664000,0.000290
2352.526400,1.664000,0.000290
2353.626700,1.664000,0.000290
2354.727300,1.663990,0.000290
2355.828000,1.663990,0.000290
2356.928500,1.663990,0.000290
2358.029000,1.663990,0.000290
2359.129600,1.663980,0.000290
2360.230200,1.663980,0.000290
2361.330600,1.663980,0.000290
2362.431200,1.663980,0.000290
2363.531700,1.663970,0.000290
2364.632300,1.663970,0.000290
2365.733000,1.663970,0.000290
2366.833500,1.663960,0.000290
2367.934000,1.663960,0.000290
2369.034400,1.663960,0.000290
2370.135000,1.663960,0.000290
2371.235600,1.663950,0.000290
2372.336200,1.663950,0.000290
2373.436800,1.663950,0.000290
2374.537400,1.663950,0.000290
2375.638000,1.663940,0.000290
2376.738300,1.663940,0.000290
2377.838900,1.663940,0.000290
2378.939500,1.663940,0.000290
2380.040000,1.663930,0.000290
2381.140600,1.663930,0.000290
2382.241200,1.663930,0.000290
2383.341800,1.663930,0.000290
2384.442100,1.663920,0.000290
2385.542700,1.663920,0.000290
2386.643300,1.663920,0.000290
2387.744000,1.663910,0.000290
2388.844500,1.663910,0.000290
2389.945000,1.663910,0.000290
2391.045700,1.663910,0.000290
2392.146000,1.663900,0.000290
2393.246600,1.663900,0.000290
2394.347200,1.663900,0.000290
2395.447800,1.663900,0.000290
2396.548300,1.663890,0.000290
2397.649000,1.663890,0.000290
2398.749500,1.663890,0.000290
2399.849900,1.663890,0.000290
2400.950400,1.663880,0.000290
2402.051000,1.663880,0.000280
2403.151600,1.663880,0.000280
2404.252200,1.663880,0.000280
2405.352800,1.663870,0.000280
2406.453100,1.663870,0.000280
2407.553700,1.663870,0.000280
2408.654300,1.663870,0.000280
2409.755000,1.663860,0.000280
2410.855500,1.663860,0.000280
2411.956000,1.663860,0.000280
2413.056600,1.663860,0.000280
2414.157000,1.663850,0.000280
2415.257600,1.663850,0.000280
2416.358200,1.663850,0.000280
2417.458700,1.663850,0.000280
2418.559300,1.663840,0.000280
2419.660000,1.663840,0.000280
2420.760500,1.663840,0.000280
2421.860800,1.663840,0.000280
2422.961400,1.663830,0.000280
2424.062000,1.663830,0.000280
2425.162600,1.663830,0.000280
2426.263200,1.663830,0.000280
2427.363800,1.663820,0.000280
2428.464400,1.663820,0.000280
2429.564700,1.663820,0.000280
2430.665300,1.663820,0.000280
2431.765900,1.663810,0.000280
2432.866500,1.663810,0.000280
2433.967000,1.663810,0.000280
2435.067600,1.663810,0.000280
2436.168000,1.663800,0.000280
2437.268600,1.663800,0.000280
2438.369100,1.663800,0.000280
2439.469700,1.663800,0.000280
2440.570300,1.663800,0.000280
2441.671000,1.663790,0.000280
2442.771500,1.663790,0.000280
2443.871800,1.663790,0.000280
2444.972400,1.663790,0.000280
2446.073000,1.663780,0.000280
2447.173600,1.663780,0.000280
2448.274200,1.663780,0.000280
2449.374800,1.663780,0.000280
2450.475300,1.663770,0.000280
2451.575700,1.663770,0.000280
2452.676300,1.663770,0.000280
2453.776900,1.663770,0.000280
2454.877400,1.663760,0.000280
2455.978000,1.663760,0.000280
2457.078600,1.663760,0.000280
2458.179200,1.663760,0.000280
2459.279500,1.663750,0.000280
2460.380100,1.663750,0.000280
2461.480700,1.663750,0.000280
2462.581300,1.663750,0.000280
2463.682000,1.663750,0.000280
2464.782500,1.663740,0.000280
2465.883000,1.663740,0.000280
2466.983400,1.663740,0.000280
2468.084000,1.663740,0.000280
2469.184600,1.663730,0.000280
2470.285200,1.663730,0.000280
2471.385700,1.663730,0.000280
2472.486300,1.663730,0.000280
2473.587000,1.663720,0.000280
2474.687300,1.663720,0.000280
2475.787800,1.663720,0.000280
2476.888400,1.663720,0.000280
2477.989000,1.663720,0.000280
2479.089600,1.663710,0.000280
2480.190200,1.663710,0.000280
2481.290800,1.663710,0.000280
2482.391000,1.663710,0.000280
2483.491700,1.663700,0.000280
2484.592300,1.663700,0.000280
2485.692900,1.663700,0.000280
2486.793500,1.663700,0.000280
2487.894000,1.663690,0.000280
2488.994400,1.663690,0.000280
2490.095000,1.663690,0.000280
2491.195600,1.663690,0.000280
2492.296100,1.663690,0.000280
2493.396700,1.663680,0.000270
2494.497300,1.663680,0.000270
2495.598000,1.663680,0.000270
2496.698200,1.663680,0.000270
2497.798800,1.663670,0.000270
2498.899400,1.663670,0.000270
2500.000000,1.663670,0.000270
